participantId,trialId,frequencyId,targetSSIM,actualSSIM,actualMagnitude,repetition,colormapId,colormapHue,colormapChromaPattern,colormapLumaPattern,targetPosition,selectedPosition,correct,reactionTime,timestamp,ciede2000_discriminative,contrast_sensitivity,hue_discriminative,luminance_variation,chromatic_variation,categorization,LAB_Length,log_categorization,logLAB_Length,log_hue_discriminative,log_luminance_variation,log_chromatic_variation
560f54b3d4ab1e00126fb99f,22,medium,0.982,0.982525243201841,0.171875,1,38,300,diverging,linear,1,1,1,5175,2026-02-22T02:49:10.398Z,2.7644751640257885,7.077056419906018,25.18343380772006,476.0580567904489,251.8343380772006,14,707.7056419906019,2.70805020110221,6.5634402668267136,3.230149391056046,6.167638195830944,5.532734484050092
560f54b3d4ab1e00126fb99f,7,low,0.954,0.9547652994011432,0.703125,1,35,300,thermal,constant,1,1,1,8351,2026-02-22T02:49:18.771Z,2.3156691937729876,5.928113136058848,19.57263030683137,354.26305180845196,195.7263030683137,11,592.8113136058848,2.4849066497880004,6.386561615037824,2.9792283452114625,5.872858506086844,5.281813438205508
560f54b3d4ab1e00126fb99f,18,medium,0.982,0.9829633323762292,0.1015625,1,39,300,thermal,linear,3,3,1,5731,2026-02-22T02:49:31.590Z,3.268442937584798,8.367213920217083,28.277916959817492,620.4214412902381,282.7791695981749,16,836.7213920217083,2.833213344056216,6.730685577447901,3.345611270863964,6.432009501175768,5.64819636385801
560f54b3d4ab1e00126fb99f,41,high,0.956,0.9553896303059948,0.59375,1,30,200,diverging,thermal,0,0,1,2854,2026-02-22T02:49:34.464Z,2.99243771713488,7.660640555865293,55.74477981468667,357.39447540810903,557.4477981468667,15,766.0640555865293,2.772588722239781,6.6425703123345246,4.022576053191332,5.881634266384059,6.325161146185378
560f54b3d4ab1e00126fb99f,29,medium,0.982,0.9826997229747408,0.1484375,1,25,200,linear,diverging,3,3,1,21847,2026-02-22T02:49:56.324Z,2.3021713043887733,5.89355853923526,18.25794001784437,460.6172876097487,182.57940017844368,11,589.355853923526,2.4849066497880004,6.380725497325851,2.9100621794336994,6.1347361659868564,5.212647272427745
560f54b3d4ab1e00126fb99f,13,low,0.954,0.95315087214113,0.5625,1,17,200,linear,constant,2,2,1,6907,2026-02-22T02:50:03.265Z,1.4354249595005972,3.674687896321529,15.47830041770039,179.02331679091822,154.7830041770039,7,367.4687896321529,2.0794415416798357,5.909356012336002,2.7458789470531353,5.193086380228247,5.048464040047181
560f54b3d4ab1e00126fb99f,12,low,0.954,0.9540324947581752,0.31640625,1,28,200,constant,thermal,1,1,1,13420,2026-02-22T02:50:16.717Z,4.764484141537908,12.197079402337044,99.7909035572375,685.0297021903295,997.9090355723749,24,1219.7079402337044,3.2188758248682006,7.107186248310701,4.604078626025598,6.5309209244421105,6.906663719019643
560f54b3d4ab1e00126fb99f,26,medium,0.982,0.9814160033571124,0.25,1,32,300,constant,constant,1,1,1,6080,2026-02-22T02:50:22.822Z,1.1876694220235262,3.040433720380227,12.29230752693276,210.28102129327064,122.9230752693276,6,304.0433720380227,1.9459101490553132,5.720453969900819,2.5170759193764254,5.35318910181509,4.819661012370471
560f54b3d4ab1e00126fb99f,24,medium,0.982,0.98190637391477,0.1875,1,5,100,linear,linear,2,2,1,7507,2026-02-22T02:50:30.356Z,1.0519932495315023,2.693102718800646,7.708626980772704,206.3969731677511,77.08626980772704,5,269.3102718800646,1.791759469228055,5.599570454336396,2.0552291456785214,5.334634701512225,4.357814238672567
560f54b3d4ab1e00126fb99f,46,high,0.956,0.95615808535288,0.78125,1,20,200,constant,linear,3,3,1,4712,2026-02-22T02:50:35.101Z,1.2683794762177183,3.2470514591173587,20.02464142995518,232.22428127289453,200.24641429955182,6,324.7051459117359,1.9459101490553132,5.785992511702159,3.001945006000816,5.452000571152468,5.304530098994862
560f54b3d4ab1e00126fb99f,4,low,0.954,0.9548330016334676,1.3125,1,16,200,constant,constant,0,0,1,7704,2026-02-22T02:50:42.836Z,1.0233956594025762,2.619892888070595,9.502234434449335,189.47275312069584,95.02234434449335,5,261.9892888070595,1.791759469228055,5.572113304379044,2.2619958249793486,5.249509156099425,4.5645809179733945
560f54b3d4ab1e00126fb99f,30,medium,0.982,0.9811975402214468,0.1484375,1,9,100,linear,diverging,0,0,1,8250,2026-02-22T02:50:51.120Z,1.5269970761611207,3.909112514972469,26.397682327389198,144.37783320074396,263.97682327389197,7,390.9112514972469,2.0794415416798357,5.971035414916568,3.2770572698235814,4.979336099562036,5.579642362817627
560f54b3d4ab1e00126fb99f,9000,medium,0.8,0.8499736243421628,6.0,0,47,300,thermal,thermal,1,1,1,1949,2026-02-22T02:50:53.101Z,3.615671498573345,9.256119036347764,48.12238510467189,591.1778040184856,481.2238510467189,18,925.6119036347764,2.9444389791664403,6.831534819473284,3.875823334505133,6.383806934415408,6.178408427499178
560f54b3d4ab1e00126fb99f,16,low,0.954,0.9538955813613624,5.859375,1,12,100,constant,thermal,1,1,1,15731,2026-02-22T02:51:08.860Z,4.77184204311527,12.215915630375092,97.32446798443593,732.3926569381587,973.2446798443593,24,1221.591563037509,3.2188758248682006,7.108728116734489,4.579077390439382,6.597681243231168,6.881662483433428
560f54b3d4ab1e00126fb99f,10,low,0.954,0.9547619656566234,3.140625,1,27,200,thermal,diverging,3,0,0,17968,2026-02-22T02:51:26.862Z,2.836383016754769,7.261140522892208,33.10029122332927,436.5597621511986,331.0029122332927,14,726.1140522892208,2.70805020110221,6.589083345956976,3.5025586476709973,6.081213295671587,5.805143740665043
560f54b3d4ab1e00126fb99f,27,medium,0.982,0.9816052861229,0.1796875,1,10,100,diverging,diverging,0,0,1,13990,2026-02-22T02:51:40.885Z,1.8140740116223453,4.644029469753204,22.533130949666123,296.224886623982,225.33130949666122,9,464.4029469753204,2.302585092994046,6.1429035829824805,3.119414804015596,5.694489046296077,5.421999897009641
560f54b3d4ab1e00126fb99f,20,medium,0.982,0.982716919568474,0.1875,1,21,200,linear,linear,0,0,1,8670,2026-02-22T02:51:49.569Z,1.4777457112598829,3.7830290208253,9.984866468557874,254.85762136716605,99.84866468557874,7,378.30290208253,2.0794415416798357,5.938335099819103,2.3110359307193975,5.5446211232270795,4.613621023713443
560f54b3d4ab1e00126fb99f,23,medium,0.982,0.9820164766576978,0.265625,1,24,200,constant,diverging,2,2,1,6339,2026-02-22T02:51:55.944Z,2.4165249716197965,6.186303927346679,45.552422168931116,403.6674974564562,455.52422168931116,12,618.6303927346679,2.5649493574615367,6.429123159526053,3.8210566651937437,6.003065735971771,6.123641758187789
560f54b3d4ab1e00126fb99f,25,medium,0.982,0.9818009015016168,0.359375,1,13,100,linear,thermal,2,2,1,8122,2026-02-22T02:52:04.101Z,2.2520884811415156,5.76534651172228,40.25654078884822,304.8833067071156,402.5654078884822,11,576.534651172228,2.4849066497880004,6.358768442625731,3.6977534829134844,5.723203678589396,6.00033857590753
560f54b3d4ab1e00126fb99f,11,low,0.954,0.9544779974762508,0.5625,1,2,100,diverging,constant,2,0,0,24603,2026-02-22T02:52:28.735Z,1.6015660161061342,4.100009001231704,28.82059881454801,206.84310287412364,288.2059881454801,8,410.00090012317037,2.1972245773362196,6.018595404574543,3.364554102973434,5.336783481958867,5.667139195967479
560f54b3d4ab1e00126fb99f,32,medium,0.982,0.9817418201358792,0.140625,1,29,200,linear,thermal,3,3,1,6705,2026-02-22T02:52:35.471Z,3.1867161903781125,8.157993447367968,43.93242587306041,545.9972771076912,439.32425873060413,16,815.7993447367968,2.833213344056216,6.7053934646180045,3.784926314163189,6.30444382454431,6.087511407157234
560f54b3d4ab1e00126fb99f,21,medium,0.982,0.9819615982394504,0.2109375,1,11,100,thermal,diverging,3,3,1,4758,2026-02-22T02:52:40.264Z,2.6173437032854174,6.700399880410669,34.25202916859344,327.3757639579683,342.52029168593435,13,670.0399880410669,2.6390573296152584,6.508828729892064,3.536661090245096,5.794158574483297,5.839246183239141
560f54b3d4ab1e00126fb99f,1,low,0.954,0.9545981230171212,1.3125,1,40,300,constant,diverging,0,0,1,2549,2026-02-22T02:52:42.838Z,2.41375458984558,6.179211750004685,49.46000593292426,212.71104654059232,494.60005932924264,12,617.9211750004685,2.5649493574615367,6.4279779220887265,3.9031841764728847,5.364624852802848,6.205769269466931
560f54b3d4ab1e00126fb99f,9,low,0.954,0.9542870455416842,0.984375,1,1,100,linear,constant,2,2,1,3544,2026-02-22T02:52:46.418Z,0.9987815922556742,2.556880876174526,11.031042441735748,137.73176588541133,110.31042441735748,5,255.6880876174526,1.791759469228055,5.54786168094699,2.40973782143489,4.932542326948488,4.712322914428936
560f54b3d4ab1e00126fb99f,35,high,0.956,0.9558301302783568,0.71875,1,37,300,linear,linear,0,0,1,3717,2026-02-22T02:52:50.172Z,2.084262834675014,5.335712856768035,20.657464068519456,353.8864017773775,206.57464068519457,10,533.5712856768035,2.3978952727983707,6.281465090471798,3.032905896140601,5.87179774327279,5.335490989134646
560f54b3d4ab1e00126fb99f,9001,medium,0.8,0.8399758203752686,6.0,0,47,300,thermal,thermal,2,2,1,2279,2026-02-22T02:52:52.485Z,3.615671498573345,9.256119036347764,48.12238510467189,591.1778040184856,481.2238510467189,18,925.6119036347764,2.9444389791664403,6.831534819473284,3.875823334505133,6.383806934415408,6.178408427499178
560f54b3d4ab1e00126fb99f,17,medium,0.982,0.9822182606573706,0.328125,1,0,100,constant,constant,3,3,1,7865,2026-02-22T02:53:00.381Z,0.6453781276536699,1.6521680067933948,5.369506668184752,84.36847794303083,53.69506668184752,3,165.21680067933949,1.3862943611198906,5.113292964432362,1.6991884237349781,4.4469769219190445,4.001773516729024
560f54b3d4ab1e00126fb99f,6,low,0.954,0.9539980755453146,0.375,1,19,200,thermal,constant,0,0,1,3365,2026-02-22T02:53:03.782Z,2.3411209479259294,5.993269626690379,21.910767913134553,393.5618764026461,219.10767913134552,11,599.3269626690379,2.4849066497880004,6.397474444573202,3.0915317842134677,5.977775975648588,5.394116877207513
560f54b3d4ab1e00126fb99f,15,low,0.954,0.9546383334524066,1.125,1,4,100,constant,linear,0,0,1,24523,2026-02-22T02:53:28.336Z,1.3013015901633072,3.3313320708180663,25.96312895379382,202.76564804285186,259.6312895379382,6,333.13320708180663,1.9459101490553132,5.811539737065932,3.2605216317875025,5.316970549382303,5.563106724781548
560f54b3d4ab1e00126fb99f,36,high,0.956,0.955148678685334,0.75,1,34,300,diverging,constant,2,2,1,3944,2026-02-22T02:53:32.292Z,2.5245384918302447,6.4628185390854265,29.568071809215223,349.07719780702075,295.68071809215223,12,646.2818539085426,2.5649493574615367,6.472781831647847,3.3900714442979436,5.8581536953254565,5.692656537291989
560f54b3d4ab1e00126fb99f,39,high,0.956,0.956029186630046,0.90625,1,42,300,diverging,diverging,2,2,1,1741,2026-02-22T02:53:34.064Z,2.44163946848197,6.250597039313843,11.064759177773231,476.38219281880504,110.64759177773232,12,625.0597039313843,2.5649493574615367,6.439445740244624,2.4127623156706255,6.168317412871403,4.715347408664671
560f54b3d4ab1e00126fb99f,43,high,0.956,0.9552781087132102,0.1328125,1,44,300,constant,thermal,1,1,1,3419,2026-02-22T02:53:37.521Z,4.786778125763763,12.254152001955234,97.51417619309734,721.2787446074294,975.1417619309734,24,1225.4152001955233,3.2188758248682006,7.1118507216389215,4.58102273075169,6.58241113724935,6.883607823745736
560f54b3d4ab1e00126fb99f,37,high,0.956,0.9558486708897628,0.3125,1,22,200,diverging,linear,2,2,1,5681,2026-02-22T02:53:43.243Z,2.0500015956242,5.2480040847979526,23.682864783867256,276.7661610276739,236.82864783867257,10,524.8004084797952,2.3978952727983707,6.264921689168426,3.168965354312275,5.626779612345206,5.471550447306321
560f54b3d4ab1e00126fb99f,47,high,0.956,0.9560725848559892,0.5625,1,7,100,thermal,linear,3,3,1,3807,2026-02-22T02:53:47.076Z,1.9230798928068427,4.923084525585518,27.819417121435134,274.29946167403017,278.19417121435134,9,492.3084525585517,2.302585092994046,6.201134642815278,3.3293224009368205,5.61785945673085,5.631907493930866
560f54b3d4ab1e00126fb99f,34,high,0.956,0.9550032063812904,0.875,1,15,100,thermal,thermal,1,1,1,2020,2026-02-22T02:53:49.124Z,2.8126005559803455,7.200257423309685,22.282452207327516,647.0726113933745,222.82452207327518,14,720.0257423309685,2.70805020110221,6.580674840296644,3.1082772682542648,6.47400274469403,5.41086236124831
560f54b3d4ab1e00126fb99f,14,low,0.954,0.9543916623983124,8.625,1,36,300,constant,linear,0,0,1,4383,2026-02-22T02:53:53.535Z,1.5775840811437247,4.038615247727935,28.264438893864696,198.01181452478085,282.64438893864696,8,403.86152477279353,2.1972245773362196,6.003545094499321,3.345136208945808,5.293364192433455,5.647721301939853
560f54b3d4ab1e00126fb99f,48,high,0.956,0.9557929891377172,0.109375,1,3,100,thermal,constant,0,0,1,3854,2026-02-22T02:53:57.416Z,2.167861097120163,5.5497244086276165,24.144465225511215,310.6047098129517,241.44465225511215,11,554.9724408627617,2.4849066497880004,6.320718726228514,3.1881883532099593,5.741735428814815,5.490773446204004
560f54b3d4ab1e00126fb99f,5,low,0.954,0.954727798231918,0.5390625,1,26,200,diverging,diverging,1,1,1,17716,2026-02-22T02:54:15.158Z,2.479848234116143,6.348411479337326,19.859349631617874,421.63312831481574,198.59349631617874,12,634.8411479337326,2.5649493574615367,6.454948764743259,2.9936976867661826,6.046504493767833,5.2962827797602285
560f54b3d4ab1e00126fb99f,9002,medium,0.8,0.8434392873821766,7.0,0,47,300,thermal,thermal,1,1,1,2786,2026-02-22T02:54:17.984Z,3.615671498573345,9.256119036347764,48.12238510467189,591.1778040184856,481.2238510467189,18,925.6119036347764,2.9444389791664403,6.831534819473284,3.875823334505133,6.383806934415408,6.178408427499178
560f54b3d4ab1e00126fb99f,19,medium,0.982,0.9814807199280754,0.140625,1,18,200,diverging,constant,2,2,1,34541,2026-02-22T02:54:52.561Z,1.9573615471802173,5.010845560781356,27.15960039811797,261.72496455631426,271.5960039811797,10,501.0845560781356,2.3978952727983707,6.218768543910235,3.3054057672511115,5.571107722843721,5.607990860245157
560f54b3d4ab1e00126fb99f,28,medium,0.982,0.9816932221759808,0.1484375,1,6,100,diverging,linear,3,3,1,2739,2026-02-22T02:54:55.346Z,1.7656857135678048,4.52015542673358,25.714146463756048,203.05757170473194,257.1414646375605,9,452.015542673358,2.302585092994046,6.115926435431655,3.2509226542078573,5.318402168268151,5.553507747201903
560f54b3d4ab1e00126fb99f,31,medium,0.982,0.9826216164027534,0.140625,1,31,200,thermal,thermal,2,2,1,3012,2026-02-22T02:54:58.393Z,2.6378752690877065,6.752960688864529,29.192126799973188,505.7586323549438,291.92126799973187,13,675.2960688864529,2.6390573296152584,6.516630951886865,3.3773187700155223,6.228034819927905,5.679903863009568
560f54b3d4ab1e00126fb99f,38,high,0.956,0.9556131296531416,4.0,1,23,200,thermal,linear,3,3,1,2743,2026-02-22T02:55:01.152Z,1.9050856947948502,4.877019378674817,17.884476278020077,301.52799602044604,178.84476278020077,9,487.70193786748166,2.302585092994046,6.191752769620164,2.8895089567914325,5.712173822016438,5.192094049785478
560f54b3d4ab1e00126fb99f,42,high,0.956,0.9562803424919532,0.265625,1,45,300,linear,thermal,1,1,1,4387,2026-02-22T02:55:05.552Z,2.785650680918033,7.1312657431501645,36.7654943423159,337.2931034144812,367.65494342315895,14,713.1265743150165,2.70805020110221,6.57106022157924,3.607276000881502,5.823912689573785,5.909861093875548
560f54b3d4ab1e00126fb99f,3,low,0.954,0.9546421967401084,0.3984375,1,8,100,constant,diverging,2,2,1,17040,2026-02-22T02:55:22.608Z,2.4171894600114086,6.188005017629206,48.12170905488188,384.43560734821665,481.2170905488188,12,618.8005017629206,2.5649493574615367,6.429397654909501,3.8758093149885227,5.954374142340996,6.178394407982569
560f54b3d4ab1e00126fb99f,33,high,0.956,0.9564511848387952,4.0,1,43,300,thermal,diverging,2,2,1,3017,2026-02-22T02:55:25.640Z,3.020467416877388,7.732396587206114,27.50386994850128,485.54255107884995,275.0386994850128,15,773.2396587206114,2.772588722239781,6.651881462252149,3.317955978419235,6.187324361478313,5.620541071413281
560f54b3d4ab1e00126fb99f,2,low,0.954,0.9545527213621716,3.24609375,1,33,300,linear,constant,2,2,1,14399,2026-02-22T02:55:40.049Z,2.5467064085615263,6.519568405917507,28.687270579927805,379.363570050975,286.87270579927804,13,651.9568405917507,2.6390573296152584,6.481511033051926,3.359933295681363,5.941127558606202,5.662518388675409
560f54b3d4ab1e00126fb99f,40,high,0.956,0.9557214924081356,1.0,1,47,300,thermal,thermal,1,1,1,4768,2026-02-22T02:55:44.828Z,3.615671498573345,9.256119036347764,48.12238510467189,591.1778040184856,481.2238510467189,18,925.6119036347764,2.9444389791664403,6.831534819473284,3.875823334505133,6.383806934415408,6.178408427499178
560f54b3d4ab1e00126fb99f,8,low,0.954,0.9547454365664692,11.625,1,46,300,diverging,thermal,1,1,1,3208,2026-02-22T02:55:48.047Z,3.731356739595517,9.552273253364524,71.75803973378433,389.8136994937531,717.5803973378432,19,955.2273253364524,2.995732273553991,6.862995672793155,4.274692502351207,5.968230974553584,6.577277595345253
560f54b3d4ab1e00126fb99f,45,high,0.956,0.9562680257305768,7.0,1,14,100,diverging,thermal,3,3,1,1917,2026-02-22T02:55:49.975Z,2.8645968946539315,7.333368050314065,54.78138779289425,412.8376920853227,547.8138779289425,14,733.3368050314065,2.70805020110221,6.598967785809949,4.005174270869296,6.02547384885128,6.307759363863342
560f54b3d4ab1e00126fb99f,44,high,0.956,0.955292425839398,0.6875,1,41,300,linear,diverging,1,1,1,1422,2026-02-22T02:55:51.410Z,2.881312507229278,7.376160018506952,26.441122187868228,508.8118027413312,264.4112218786823,14,737.6160018506952,2.70805020110221,6.604778167294386,3.2786953108989456,6.234041643383181,5.5812804038929915
560f54b3d4ab1e00126fb99f,9003,medium,0.8,0.8818044081229874,6.0,0,47,300,thermal,thermal,0,0,1,1898,2026-02-22T02:55:53.317Z,3.615671498573345,9.256119036347764,48.12238510467189,591.1778040184856,481.2238510467189,18,925.6119036347764,2.9444389791664403,6.831534819473284,3.875823334505133,6.383806934415408,6.178408427499178
5711c09d28742b0011c585be,37,high,0.956,0.956279175240168,1.125,1,26,200,diverging,diverging,2,2,1,2935,2026-02-22T07:18:40.186Z,2.479848234116143,6.348411479337326,19.859349631617874,421.63312831481574,198.59349631617874,12,634.8411479337326,2.5649493574615367,6.454948764743259,2.9936976867661826,6.046504493767833,5.2962827797602285
5711c09d28742b0011c585be,42,high,0.956,0.9562292222930564,0.5625,1,27,200,thermal,diverging,3,3,1,2682,2026-02-22T07:18:42.883Z,2.836383016754769,7.261140522892208,33.10029122332927,436.5597621511986,331.0029122332927,14,726.1140522892208,2.70805020110221,6.589083345956976,3.5025586476709973,6.081213295671587,5.805143740665043
5711c09d28742b0011c585be,7,low,0.954,0.9544642552730608,0.328125,1,24,200,constant,diverging,1,1,1,4044,2026-02-22T07:18:46.941Z,2.4165249716197965,6.186303927346679,45.552422168931116,403.6674974564562,455.52422168931116,12,618.6303927346679,2.5649493574615367,6.429123159526053,3.8210566651937437,6.003065735971771,6.123641758187789
5711c09d28742b0011c585be,39,high,0.956,0.9566811230203304,7.5,1,35,300,thermal,constant,3,3,1,2122,2026-02-22T07:18:49.071Z,2.3156691937729876,5.928113136058848,19.57263030683137,354.26305180845196,195.7263030683137,11,592.8113136058848,2.4849066497880004,6.386561615037824,2.9792283452114625,5.872858506086844,5.281813438205508
5711c09d28742b0011c585be,31,medium,0.982,0.9824662428885028,0.234375,1,7,100,thermal,linear,2,0,0,6717,2026-02-22T07:18:55.796Z,1.9230798928068427,4.923084525585518,27.819417121435134,274.29946167403017,278.19417121435134,9,492.3084525585517,2.302585092994046,6.201134642815278,3.3293224009368205,5.61785945673085,5.631907493930866
5711c09d28742b0011c585be,45,high,0.956,0.9555714450072792,0.421875,1,17,200,linear,constant,3,3,1,3632,2026-02-22T07:18:59.444Z,1.4354249595005972,3.674687896321529,15.47830041770039,179.02331679091822,154.7830041770039,7,367.4687896321529,2.0794415416798357,5.909356012336002,2.7458789470531353,5.193086380228247,5.048464040047181
5711c09d28742b0011c585be,2,low,0.954,0.9544609018652054,0.4921875,1,39,300,thermal,linear,1,1,1,8620,2026-02-22T07:19:08.078Z,3.268442937584798,8.367213920217083,28.277916959817492,620.4214412902381,282.7791695981749,16,836.7213920217083,2.833213344056216,6.730685577447901,3.345611270863964,6.432009501175768,5.64819636385801
5711c09d28742b0011c585be,20,medium,0.982,0.9827861976200408,0.21875,1,34,300,diverging,constant,2,2,1,6411,2026-02-22T07:19:14.518Z,2.5245384918302447,6.4628185390854265,29.568071809215223,349.07719780702075,295.68071809215223,12,646.2818539085426,2.5649493574615367,6.472781831647847,3.3900714442979436,5.8581536953254565,5.692656537291989
5711c09d28742b0011c585be,43,high,0.956,0.9569442926762362,0.15625,1,2,100,diverging,constant,3,3,1,4474,2026-02-22T07:19:19.016Z,1.6015660161061342,4.100009001231704,28.82059881454801,206.84310287412364,288.2059881454801,8,410.00090012317037,2.1972245773362196,6.018595404574543,3.364554102973434,5.336783481958867,5.667139195967479
5711c09d28742b0011c585be,48,high,0.956,0.9554415553868384,4.0,1,12,100,constant,thermal,0,0,1,4347,2026-02-22T07:19:23.382Z,4.77184204311527,12.215915630375092,97.32446798443593,732.3926569381587,973.2446798443593,24,1221.591563037509,3.2188758248682006,7.108728116734489,4.579077390439382,6.597681243231168,6.881662483433428
5711c09d28742b0011c585be,29,medium,0.982,0.9827962555418857,0.375,1,14,100,diverging,thermal,1,1,1,3478,2026-02-22T07:19:26.880Z,2.8645968946539315,7.333368050314065,54.78138779289425,412.8376920853227,547.8138779289425,14,733.3368050314065,2.70805020110221,6.598967785809949,4.005174270869296,6.02547384885128,6.307759363863342
5711c09d28742b0011c585be,38,high,0.956,0.955860113839996,0.5625,1,19,200,thermal,constant,3,3,1,6036,2026-02-22T07:19:32.933Z,2.3411209479259294,5.993269626690379,21.910767913134553,393.5618764026461,219.10767913134552,11,599.3269626690379,2.4849066497880004,6.397474444573202,3.0915317842134677,5.977775975648588,5.394116877207513
5711c09d28742b0011c585be,9000,medium,0.8,0.8530351591997278,7.0,0,47,300,thermal,thermal,0,0,1,3363,2026-02-22T07:19:36.314Z,3.615671498573345,9.256119036347764,48.12238510467189,591.1778040184856,481.2238510467189,18,925.6119036347764,2.9444389791664403,6.831534819473284,3.875823334505133,6.383806934415408,6.178408427499178
5711c09d28742b0011c585be,3,low,0.954,0.9541022180897992,7.078125,1,18,200,diverging,constant,1,1,1,14034,2026-02-22T07:19:50.368Z,1.9573615471802173,5.010845560781356,27.15960039811797,261.72496455631426,271.5960039811797,10,501.0845560781356,2.3978952727983707,6.218768543910235,3.3054057672511115,5.571107722843721,5.607990860245157
5711c09d28742b0011c585be,33,high,0.956,0.9560941366662132,0.875,1,40,300,constant,diverging,1,1,1,3988,2026-02-22T07:19:54.374Z,2.41375458984558,6.179211750004685,49.46000593292426,212.71104654059232,494.60005932924264,12,617.9211750004685,2.5649493574615367,6.4279779220887265,3.9031841764728847,5.364624852802848,6.205769269466931
5711c09d28742b0011c585be,41,high,0.956,0.9551654796855246,6.5,1,1,100,linear,constant,1,1,1,2722,2026-02-22T07:19:57.112Z,0.9987815922556742,2.556880876174526,11.031042441735748,137.73176588541133,110.31042441735748,5,255.6880876174526,1.791759469228055,5.54786168094699,2.40973782143489,4.932542326948488,4.712322914428936
5711c09d28742b0011c585be,46,high,0.956,0.956212763805548,0.3125,1,36,300,constant,linear,3,3,1,2747,2026-02-22T07:19:59.869Z,1.5775840811437247,4.038615247727935,28.264438893864696,198.01181452478085,282.64438893864696,8,403.86152477279353,2.1972245773362196,6.003545094499321,3.345136208945808,5.293364192433455,5.647721301939853
5711c09d28742b0011c585be,35,high,0.956,0.9563106778724214,1.0,1,8,100,constant,diverging,1,1,1,3759,2026-02-22T07:20:03.643Z,2.4171894600114086,6.188005017629206,48.12170905488188,384.43560734821665,481.2170905488188,12,618.8005017629206,2.5649493574615367,6.429397654909501,3.8758093149885227,5.954374142340996,6.178394407982569
5711c09d28742b0011c585be,4,low,0.954,0.9534212691009224,1.5,1,21,200,linear,linear,2,3,0,15674,2026-02-22T07:20:19.335Z,1.4777457112598829,3.7830290208253,9.984866468557874,254.85762136716605,99.84866468557874,7,378.30290208253,2.0794415416798357,5.938335099819103,2.3110359307193975,5.5446211232270795,4.613621023713443
5711c09d28742b0011c585be,11,low,0.954,0.953477517715849,0.609375,1,10,100,diverging,diverging,1,1,1,4033,2026-02-22T07:20:23.389Z,1.8140740116223453,4.644029469753204,22.533130949666123,296.224886623982,225.33130949666122,9,464.4029469753204,2.302585092994046,6.1429035829824805,3.119414804015596,5.694489046296077,5.421999897009641
5711c09d28742b0011c585be,12,low,0.954,0.953303697812654,0.4453125,1,6,100,diverging,linear,3,3,1,4639,2026-02-22T07:20:28.043Z,1.7656857135678048,4.52015542673358,25.714146463756048,203.05757170473194,257.1414646375605,9,452.015542673358,2.302585092994046,6.115926435431655,3.2509226542078573,5.318402168268151,5.553507747201903
5711c09d28742b0011c585be,32,medium,0.982,0.9818983766930992,0.171875,1,3,100,thermal,constant,3,3,1,2222,2026-02-22T07:20:30.284Z,2.167861097120163,5.5497244086276165,24.144465225511215,310.6047098129517,241.44465225511215,11,554.9724408627617,2.4849066497880004,6.320718726228514,3.1881883532099593,5.741735428814815,5.490773446204004
5711c09d28742b0011c585be,9,low,0.954,0.9539079174447344,9.3984375,1,13,100,linear,thermal,1,0,0,15386,2026-02-22T07:20:45.686Z,2.2520884811415156,5.76534651172228,40.25654078884822,304.8833067071156,402.5654078884822,11,576.534651172228,2.4849066497880004,6.358768442625731,3.6977534829134844,5.723203678589396,6.00033857590753
5711c09d28742b0011c585be,13,low,0.954,0.954472860215014,0.6328125,1,25,200,linear,diverging,3,2,0,10710,2026-02-22T07:20:56.413Z,2.3021713043887733,5.89355853923526,18.25794001784437,460.6172876097487,182.57940017844368,11,589.355853923526,2.4849066497880004,6.380725497325851,2.9100621794336994,6.1347361659868564,5.212647272427745
5711c09d28742b0011c585be,28,medium,0.982,0.9816613871869202,0.25,1,41,300,linear,diverging,0,0,1,3195,2026-02-22T07:20:59.624Z,2.881312507229278,7.376160018506952,26.441122187868228,508.8118027413312,264.4112218786823,14,737.6160018506952,2.70805020110221,6.604778167294386,3.2786953108989456,6.234041643383181,5.5812804038929915
5711c09d28742b0011c585be,9001,medium,0.8,0.8519862788832212,7.75,0,47,300,thermal,thermal,3,3,1,4822,2026-02-22T07:21:04.463Z,3.615671498573345,9.256119036347764,48.12238510467189,591.1778040184856,481.2238510467189,18,925.6119036347764,2.9444389791664403,6.831534819473284,3.875823334505133,6.383806934415408,6.178408427499178
5711c09d28742b0011c585be,25,medium,0.982,0.9822069180465646,0.234375,1,30,200,diverging,thermal,1,1,1,2519,2026-02-22T07:21:07.001Z,2.99243771713488,7.660640555865293,55.74477981468667,357.39447540810903,557.4477981468667,15,766.0640555865293,2.772588722239781,6.6425703123345246,4.022576053191332,5.881634266384059,6.325161146185378
5711c09d28742b0011c585be,8,low,0.954,0.9549058846868462,0.9375,1,5,100,linear,linear,3,3,1,11569,2026-02-22T07:21:18.587Z,1.0519932495315023,2.693102718800646,7.708626980772704,206.3969731677511,77.08626980772704,5,269.3102718800646,1.791759469228055,5.599570454336396,2.0552291456785214,5.334634701512225,4.357814238672567
5711c09d28742b0011c585be,23,medium,0.982,0.9819273309003952,0.34375,1,42,300,diverging,diverging,3,3,1,5025,2026-02-22T07:21:23.629Z,2.44163946848197,6.250597039313843,11.064759177773231,476.38219281880504,110.64759177773232,12,625.0597039313843,2.5649493574615367,6.439445740244624,2.4127623156706255,6.168317412871403,4.715347408664671
5711c09d28742b0011c585be,27,medium,0.982,0.9825125204022908,0.25,1,44,300,constant,thermal,2,2,1,8240,2026-02-22T07:21:31.875Z,4.786778125763763,12.254152001955234,97.51417619309734,721.2787446074294,975.1417619309734,24,1225.4152001955233,3.2188758248682006,7.1118507216389215,4.58102273075169,6.58241113724935,6.883607823745736
5711c09d28742b0011c585be,40,high,0.956,0.9557378269915654,1.125,1,46,300,diverging,thermal,3,3,1,2780,2026-02-22T07:21:34.672Z,3.731356739595517,9.552273253364524,71.75803973378433,389.8136994937531,717.5803973378432,19,955.2273253364524,2.995732273553991,6.862995672793155,4.274692502351207,5.968230974553584,6.577277595345253
5711c09d28742b0011c585be,34,high,0.956,0.9559753777105656,0.375,1,33,300,linear,constant,2,2,1,4427,2026-02-22T07:21:39.121Z,2.5467064085615263,6.519568405917507,28.687270579927805,379.363570050975,286.87270579927804,13,651.9568405917507,2.6390573296152584,6.481511033051926,3.359933295681363,5.941127558606202,5.662518388675409
5711c09d28742b0011c585be,16,low,0.954,0.9536415460418975,0.6796875,1,29,200,linear,thermal,3,3,1,4579,2026-02-22T07:21:43.718Z,3.1867161903781125,8.157993447367968,43.93242587306041,545.9972771076912,439.32425873060413,16,815.7993447367968,2.833213344056216,6.7053934646180045,3.784926314163189,6.30444382454431,6.087511407157234
5711c09d28742b0011c585be,22,medium,0.982,0.9819842575328608,2.0,1,23,200,thermal,linear,2,2,1,4227,2026-02-22T07:21:47.966Z,1.9050856947948502,4.877019378674817,17.884476278020077,301.52799602044604,178.84476278020077,9,487.70193786748166,2.302585092994046,6.191752769620164,2.8895089567914325,5.712173822016438,5.192094049785478
5711c09d28742b0011c585be,17,medium,0.982,0.982723058716586,0.40625,1,43,300,thermal,diverging,3,3,1,8259,2026-02-22T07:21:56.243Z,3.020467416877388,7.732396587206114,27.50386994850128,485.54255107884995,275.0386994850128,15,773.2396587206114,2.772588722239781,6.651881462252149,3.317955978419235,6.187324361478313,5.620541071413281
5711c09d28742b0011c585be,15,low,0.954,0.9531517401725464,1.03125,1,31,200,thermal,thermal,2,2,1,8105,2026-02-22T07:22:04.366Z,2.6378752690877065,6.752960688864529,29.192126799973188,505.7586323549438,291.92126799973187,13,675.2960688864529,2.6390573296152584,6.516630951886865,3.3773187700155223,6.228034819927905,5.679903863009568
5711c09d28742b0011c585be,26,medium,0.982,0.9814584562393984,0.1640625,1,45,300,linear,thermal,1,1,1,3830,2026-02-22T07:22:08.212Z,2.785650680918033,7.1312657431501645,36.7654943423159,337.2931034144812,367.65494342315895,14,713.1265743150165,2.70805020110221,6.57106022157924,3.607276000881502,5.823912689573785,5.909861093875548
5711c09d28742b0011c585be,1,low,0.954,0.9536872436423957,0.5390625,1,0,100,constant,constant,0,0,1,7063,2026-02-22T07:22:15.294Z,0.6453781276536699,1.6521680067933948,5.369506668184752,84.36847794303083,53.69506668184752,3,165.21680067933949,1.3862943611198906,5.113292964432362,1.6991884237349781,4.4469769219190445,4.001773516729024
5711c09d28742b0011c585be,9002,medium,0.8,0.8441976603115294,7.0,0,47,300,thermal,thermal,0,0,1,2930,2026-02-22T07:22:18.242Z,3.615671498573345,9.256119036347764,48.12238510467189,591.1778040184856,481.2238510467189,18,925.6119036347764,2.9444389791664403,6.831534819473284,3.875823334505133,6.383806934415408,6.178408427499178
5711c09d28742b0011c585be,36,high,0.956,0.9553407448147344,0.3125,1,16,200,constant,constant,1,1,1,3144,2026-02-22T07:22:21.405Z,1.0233956594025762,2.619892888070595,9.502234434449335,189.47275312069584,95.02234434449335,5,261.9892888070595,1.791759469228055,5.572113304379044,2.2619958249793486,5.249509156099425,4.5645809179733945
5711c09d28742b0011c585be,24,medium,0.982,0.9812099032842756,0.171875,1,47,300,thermal,thermal,3,3,1,7028,2026-02-22T07:22:28.451Z,3.615671498573345,9.256119036347764,48.12238510467189,591.1778040184856,481.2238510467189,18,925.6119036347764,2.9444389791664403,6.831534819473284,3.875823334505133,6.383806934415408,6.178408427499178
5711c09d28742b0011c585be,10,low,0.954,0.9545155050742342,10.40625,1,32,300,constant,constant,0,2,0,11951,2026-02-22T07:22:40.419Z,1.1876694220235262,3.040433720380227,12.29230752693276,210.28102129327064,122.9230752693276,6,304.0433720380227,1.9459101490553132,5.720453969900819,2.5170759193764254,5.35318910181509,4.819661012370471
5711c09d28742b0011c585be,5,low,0.954,0.9531947041081564,9.0,1,11,100,thermal,diverging,3,3,1,27412,2026-02-22T07:23:07.838Z,2.6173437032854174,6.700399880410669,34.25202916859344,327.3757639579683,342.52029168593435,13,670.0399880410669,2.6390573296152584,6.508828729892064,3.536661090245096,5.794158574483297,5.839246183239141
5711c09d28742b0011c585be,19,medium,0.982,0.981927062355432,0.21875,1,37,300,linear,linear,1,1,1,3255,2026-02-22T07:23:11.100Z,2.084262834675014,5.335712856768035,20.657464068519456,353.8864017773775,206.57464068519457,10,533.5712856768035,2.3978952727983707,6.281465090471798,3.032905896140601,5.87179774327279,5.335490989134646
5711c09d28742b0011c585be,30,medium,0.982,0.9826964417186944,0.28125,1,20,200,constant,linear,2,2,1,9121,2026-02-22T07:23:20.226Z,1.2683794762177183,3.2470514591173587,20.02464142995518,232.22428127289453,200.24641429955182,6,324.7051459117359,1.9459101490553132,5.785992511702159,3.001945006000816,5.452000571152468,5.304530098994862
5711c09d28742b0011c585be,18,medium,0.982,0.9814304629807066,0.28125,1,15,100,thermal,thermal,3,3,1,7718,2026-02-22T07:23:27.948Z,2.8126005559803455,7.200257423309685,22.282452207327516,647.0726113933745,222.82452207327518,14,720.0257423309685,2.70805020110221,6.580674840296644,3.1082772682542648,6.47400274469403,5.41086236124831
5711c09d28742b0011c585be,6,low,0.954,0.9543304747118097,0.984375,1,38,300,diverging,linear,3,1,0,21142,2026-02-22T07:23:49.095Z,2.7644751640257885,7.077056419906018,25.18343380772006,476.0580567904489,251.8343380772006,14,707.7056419906019,2.70805020110221,6.5634402668267136,3.230149391056046,6.167638195830944,5.532734484050092
5711c09d28742b0011c585be,44,high,0.956,0.9554895059528868,0.6875,1,28,200,constant,thermal,3,3,1,1983,2026-02-22T07:23:51.085Z,4.764484141537908,12.197079402337044,99.7909035572375,685.0297021903295,997.9090355723749,24,1219.7079402337044,3.2188758248682006,7.107186248310701,4.604078626025598,6.5309209244421105,6.906663719019643
5711c09d28742b0011c585be,14,low,0.954,0.9540110022789776,1.2890625,1,9,100,linear,diverging,0,3,0,13636,2026-02-22T07:24:04.730Z,1.5269970761611207,3.909112514972469,26.397682327389198,144.37783320074396,263.97682327389197,7,390.9112514972469,2.0794415416798357,5.971035414916568,3.2770572698235814,4.979336099562036,5.579642362817627
5711c09d28742b0011c585be,21,medium,0.982,0.9818072138356104,0.25,1,22,200,diverging,linear,3,3,1,4790,2026-02-22T07:24:09.524Z,2.0500015956242,5.2480040847979526,23.682864783867256,276.7661610276739,236.82864783867257,10,524.8004084797952,2.3978952727983707,6.264921689168426,3.168965354312275,5.626779612345206,5.471550447306321
5711c09d28742b0011c585be,47,high,0.956,0.9552982526971212,0.296875,1,4,100,constant,linear,0,0,1,3655,2026-02-22T07:24:13.184Z,1.3013015901633072,3.3313320708180663,25.96312895379382,202.76564804285186,259.6312895379382,6,333.13320708180663,1.9459101490553132,5.811539737065932,3.2605216317875025,5.316970549382303,5.563106724781548
5711c09d28742b0011c585be,9003,medium,0.8,0.8610402020364729,4.0,0,47,300,thermal,thermal,2,2,1,4182,2026-02-22T07:24:17.372Z,3.615671498573345,9.256119036347764,48.12238510467189,591.1778040184856,481.2238510467189,18,925.6119036347764,2.9444389791664403,6.831534819473284,3.875823334505133,6.383806934415408,6.178408427499178
58a50aebbb9e0f0001aca2a7,41,high,0.956,0.956781344422966,0.53125,1,1,100,linear,constant,1,1,1,18281,2026-02-22T07:09:18.880Z,0.9987815922556742,2.556880876174526,11.031042441735748,137.73176588541133,110.31042441735748,5,255.6880876174526,1.791759469228055,5.54786168094699,2.40973782143489,4.932542326948488,4.712322914428936
58a50aebbb9e0f0001aca2a7,37,high,0.956,0.9560189777028648,0.171875,1,26,200,diverging,diverging,3,3,1,4821,2026-02-22T07:09:23.740Z,2.479848234116143,6.348411479337326,19.859349631617874,421.63312831481574,198.59349631617874,12,634.8411479337326,2.5649493574615367,6.454948764743259,2.9936976867661826,6.046504493767833,5.2962827797602285
58a50aebbb9e0f0001aca2a7,36,high,0.956,0.9553137751008944,0.53125,1,16,200,constant,constant,3,3,1,2321,2026-02-22T07:09:26.082Z,1.0233956594025762,2.619892888070595,9.502234434449335,189.47275312069584,95.02234434449335,5,261.9892888070595,1.791759469228055,5.572113304379044,2.2619958249793486,5.249509156099425,4.5645809179733945
58a50aebbb9e0f0001aca2a7,31,medium,0.982,0.9817504368881272,0.1171875,1,7,100,thermal,linear,1,1,1,12600,2026-02-22T07:09:38.703Z,1.9230798928068427,4.923084525585518,27.819417121435134,274.29946167403017,278.19417121435134,9,492.3084525585517,2.302585092994046,6.201134642815278,3.3293224009368205,5.61785945673085,5.631907493930866
58a50aebbb9e0f0001aca2a7,21,medium,0.982,0.9824251492825236,0.65625,1,22,200,diverging,linear,0,1,0,6996,2026-02-22T07:09:45.751Z,2.0500015956242,5.2480040847979526,23.682864783867256,276.7661610276739,236.82864783867257,10,524.8004084797952,2.3978952727983707,6.264921689168426,3.168965354312275,5.626779612345206,5.471550447306321
58a50aebbb9e0f0001aca2a7,2,low,0.954,0.9545728880181744,10.5,1,39,300,thermal,linear,3,1,0,9009,2026-02-22T07:09:54.806Z,3.268442937584798,8.367213920217083,28.277916959817492,620.4214412902381,282.7791695981749,16,836.7213920217083,2.833213344056216,6.730685577447901,3.345611270863964,6.432009501175768,5.64819636385801
58a50aebbb9e0f0001aca2a7,34,high,0.956,0.9553591451484632,0.8125,1,33,300,linear,constant,0,0,1,2452,2026-02-22T07:09:57.310Z,2.5467064085615263,6.519568405917507,28.687270579927805,379.363570050975,286.87270579927804,13,651.9568405917507,2.6390573296152584,6.481511033051926,3.359933295681363,5.941127558606202,5.662518388675409
58a50aebbb9e0f0001aca2a7,35,high,0.956,0.9554459087435134,0.4375,1,8,100,constant,diverging,3,3,1,2815,2026-02-22T07:10:00.141Z,2.4171894600114086,6.188005017629206,48.12170905488188,384.43560734821665,481.2170905488188,12,618.8005017629206,2.5649493574615367,6.429397654909501,3.8758093149885227,5.954374142340996,6.178394407982569
58a50aebbb9e0f0001aca2a7,16,low,0.954,0.9541802783871988,0.80859375,1,29,200,linear,thermal,1,1,1,7497,2026-02-22T07:10:07.683Z,3.1867161903781125,8.157993447367968,43.93242587306041,545.9972771076912,439.32425873060413,16,815.7993447367968,2.833213344056216,6.7053934646180045,3.784926314163189,6.30444382454431,6.087511407157234
58a50aebbb9e0f0001aca2a7,45,high,0.956,0.956399480992186,4.0,1,17,200,linear,constant,0,0,1,2911,2026-02-22T07:10:10.615Z,1.4354249595005972,3.674687896321529,15.47830041770039,179.02331679091822,154.7830041770039,7,367.4687896321529,2.0794415416798357,5.909356012336002,2.7458789470531353,5.193086380228247,5.048464040047181
58a50aebbb9e0f0001aca2a7,10,low,0.954,0.9546446114681534,6.0,1,32,300,constant,constant,0,1,0,15461,2026-02-22T07:10:26.126Z,1.1876694220235262,3.040433720380227,12.29230752693276,210.28102129327064,122.9230752693276,6,304.0433720380227,1.9459101490553132,5.720453969900819,2.5170759193764254,5.35318910181509,4.819661012370471
58a50aebbb9e0f0001aca2a7,20,medium,0.982,0.9818476541682176,0.375,1,34,300,diverging,constant,1,1,1,10126,2026-02-22T07:10:36.298Z,2.5245384918302447,6.4628185390854265,29.568071809215223,349.07719780702075,295.68071809215223,12,646.2818539085426,2.5649493574615367,6.472781831647847,3.3900714442979436,5.8581536953254565,5.692656537291989
58a50aebbb9e0f0001aca2a7,9000,medium,0.8,0.9148088269162084,4.0,0,47,300,thermal,thermal,1,1,1,5476,2026-02-22T07:10:41.820Z,3.615671498573345,9.256119036347764,48.12238510467189,591.1778040184856,481.2238510467189,18,925.6119036347764,2.9444389791664403,6.831534819473284,3.875823334505133,6.383806934415408,6.178408427499178
58a50aebbb9e0f0001aca2a7,22,medium,0.982,0.9811804519985698,0.3125,1,23,200,thermal,linear,1,1,1,4567,2026-02-22T07:10:46.424Z,1.9050856947948502,4.877019378674817,17.884476278020077,301.52799602044604,178.84476278020077,9,487.70193786748166,2.302585092994046,6.191752769620164,2.8895089567914325,5.712173822016438,5.192094049785478
58a50aebbb9e0f0001aca2a7,42,high,0.956,0.9562208209271184,4.5,1,27,200,thermal,diverging,1,1,1,1990,2026-02-22T07:10:48.462Z,2.836383016754769,7.261140522892208,33.10029122332927,436.5597621511986,331.0029122332927,14,726.1140522892208,2.70805020110221,6.589083345956976,3.5025586476709973,6.081213295671587,5.805143740665043
58a50aebbb9e0f0001aca2a7,17,medium,0.982,0.9822913921578852,0.1875,1,43,300,thermal,diverging,3,3,1,10581,2026-02-22T07:10:59.076Z,3.020467416877388,7.732396587206114,27.50386994850128,485.54255107884995,275.0386994850128,15,773.2396587206114,2.772588722239781,6.651881462252149,3.317955978419235,6.187324361478313,5.620541071413281
58a50aebbb9e0f0001aca2a7,33,high,0.956,0.9557048182666644,0.1875,1,40,300,constant,diverging,0,0,1,3575,2026-02-22T07:11:02.662Z,2.41375458984558,6.179211750004685,49.46000593292426,212.71104654059232,494.60005932924264,12,617.9211750004685,2.5649493574615367,6.4279779220887265,3.9031841764728847,5.364624852802848,6.205769269466931
58a50aebbb9e0f0001aca2a7,48,high,0.956,0.9567223995520496,0.75,1,12,100,constant,thermal,3,3,1,2856,2026-02-22T07:11:05.546Z,4.77184204311527,12.215915630375092,97.32446798443593,732.3926569381587,973.2446798443593,24,1221.591563037509,3.2188758248682006,7.108728116734489,4.579077390439382,6.597681243231168,6.881662483433428
58a50aebbb9e0f0001aca2a7,24,medium,0.982,0.9816217937312596,0.1328125,1,47,300,thermal,thermal,1,0,0,10724,2026-02-22T07:11:16.313Z,3.615671498573345,9.256119036347764,48.12238510467189,591.1778040184856,481.2238510467189,18,925.6119036347764,2.9444389791664403,6.831534819473284,3.875823334505133,6.383806934415408,6.178408427499178
58a50aebbb9e0f0001aca2a7,47,high,0.956,0.9560370898616204,0.78125,1,4,100,constant,linear,0,0,1,2048,2026-02-22T07:11:18.399Z,1.3013015901633072,3.3313320708180663,25.96312895379382,202.76564804285186,259.6312895379382,6,333.13320708180663,1.9459101490553132,5.811539737065932,3.2605216317875025,5.316970549382303,5.563106724781548
58a50aebbb9e0f0001aca2a7,32,medium,0.982,0.9819464918100592,0.265625,1,3,100,thermal,constant,0,0,1,10385,2026-02-22T07:11:28.823Z,2.167861097120163,5.5497244086276165,24.144465225511215,310.6047098129517,241.44465225511215,11,554.9724408627617,2.4849066497880004,6.320718726228514,3.1881883532099593,5.741735428814815,5.490773446204004
58a50aebbb9e0f0001aca2a7,25,medium,0.982,0.9810804604985676,0.15625,1,30,200,diverging,thermal,2,2,1,9706,2026-02-22T07:11:38.564Z,2.99243771713488,7.660640555865293,55.74477981468667,357.39447540810903,557.4477981468667,15,766.0640555865293,2.772588722239781,6.6425703123345246,4.022576053191332,5.881634266384059,6.325161146185378
58a50aebbb9e0f0001aca2a7,13,low,0.954,0.9535419287031008,0.421875,1,25,200,linear,diverging,2,2,1,6113,2026-02-22T07:11:44.693Z,2.3021713043887733,5.89355853923526,18.25794001784437,460.6172876097487,182.57940017844368,11,589.355853923526,2.4849066497880004,6.380725497325851,2.9100621794336994,6.1347361659868564,5.212647272427745
58a50aebbb9e0f0001aca2a7,19,medium,0.982,0.9822341589454078,0.359375,1,37,300,linear,linear,3,3,1,4747,2026-02-22T07:11:49.489Z,2.084262834675014,5.335712856768035,20.657464068519456,353.8864017773775,206.57464068519457,10,533.5712856768035,2.3978952727983707,6.281465090471798,3.032905896140601,5.87179774327279,5.335490989134646
58a50aebbb9e0f0001aca2a7,12,low,0.954,0.954395088179418,7.453125,1,6,100,diverging,linear,3,2,0,16006,2026-02-22T07:12:05.529Z,1.7656857135678048,4.52015542673358,25.714146463756048,203.05757170473194,257.1414646375605,9,452.015542673358,2.302585092994046,6.115926435431655,3.2509226542078573,5.318402168268151,5.553507747201903
58a50aebbb9e0f0001aca2a7,9001,medium,0.8,0.810749794834296,7.0,0,47,300,thermal,thermal,1,1,1,2445,2026-02-22T07:12:08.004Z,3.615671498573345,9.256119036347764,48.12238510467189,591.1778040184856,481.2238510467189,18,925.6119036347764,2.9444389791664403,6.831534819473284,3.875823334505133,6.383806934415408,6.178408427499178
58a50aebbb9e0f0001aca2a7,14,low,0.954,0.9545641018980856,6.609375,1,9,100,linear,diverging,0,0,1,8325,2026-02-22T07:12:16.376Z,1.5269970761611207,3.909112514972469,26.397682327389198,144.37783320074396,263.97682327389197,7,390.9112514972469,2.0794415416798357,5.971035414916568,3.2770572698235814,4.979336099562036,5.579642362817627
58a50aebbb9e0f0001aca2a7,43,high,0.956,0.955737434362246,0.359375,1,2,100,diverging,constant,1,1,1,2087,2026-02-22T07:12:18.491Z,1.6015660161061342,4.100009001231704,28.82059881454801,206.84310287412364,288.2059881454801,8,410.00090012317037,2.1972245773362196,6.018595404574543,3.364554102973434,5.336783481958867,5.667139195967479
58a50aebbb9e0f0001aca2a7,30,medium,0.982,0.9813321955654,0.234375,1,20,200,constant,linear,0,0,1,2052,2026-02-22T07:12:20.589Z,1.2683794762177183,3.2470514591173587,20.02464142995518,232.22428127289453,200.24641429955182,6,324.7051459117359,1.9459101490553132,5.785992511702159,3.001945006000816,5.452000571152468,5.304530098994862
58a50aebbb9e0f0001aca2a7,4,low,0.954,0.95338143015524,1.3125,1,21,200,linear,linear,0,0,1,10770,2026-02-22T07:12:31.387Z,1.4777457112598829,3.7830290208253,9.984866468557874,254.85762136716605,99.84866468557874,7,378.30290208253,2.0794415416798357,5.938335099819103,2.3110359307193975,5.5446211232270795,4.613621023713443
58a50aebbb9e0f0001aca2a7,29,medium,0.982,0.9824336732402962,0.34375,1,14,100,diverging,thermal,2,2,1,5012,2026-02-22T07:12:36.434Z,2.8645968946539315,7.333368050314065,54.78138779289425,412.8376920853227,547.8138779289425,14,733.3368050314065,2.70805020110221,6.598967785809949,4.005174270869296,6.02547384885128,6.307759363863342
58a50aebbb9e0f0001aca2a7,15,low,0.954,0.95456380868278,0.4921875,1,31,200,thermal,thermal,3,2,0,11431,2026-02-22T07:12:47.899Z,2.6378752690877065,6.752960688864529,29.192126799973188,505.7586323549438,291.92126799973187,13,675.2960688864529,2.6390573296152584,6.516630951886865,3.3773187700155223,6.228034819927905,5.679903863009568
58a50aebbb9e0f0001aca2a7,26,medium,0.982,0.9819901006004,0.125,1,45,300,linear,thermal,1,1,1,22684,2026-02-22T07:13:10.598Z,2.785650680918033,7.1312657431501645,36.7654943423159,337.2931034144812,367.65494342315895,14,713.1265743150165,2.70805020110221,6.57106022157924,3.607276000881502,5.823912689573785,5.909861093875548
58a50aebbb9e0f0001aca2a7,11,low,0.954,0.9540956316982312,0.609375,1,10,100,diverging,diverging,0,0,1,13959,2026-02-22T07:13:24.573Z,1.8140740116223453,4.644029469753204,22.533130949666123,296.224886623982,225.33130949666122,9,464.4029469753204,2.302585092994046,6.1429035829824805,3.119414804015596,5.694489046296077,5.421999897009641
58a50aebbb9e0f0001aca2a7,23,medium,0.982,0.9819646673322006,0.34375,1,42,300,diverging,diverging,0,0,1,3621,2026-02-22T07:13:28.245Z,2.44163946848197,6.250597039313843,11.064759177773231,476.38219281880504,110.64759177773232,12,625.0597039313843,2.5649493574615367,6.439445740244624,2.4127623156706255,6.168317412871403,4.715347408664671
58a50aebbb9e0f0001aca2a7,28,medium,0.982,0.982027706945012,0.3125,1,41,300,linear,diverging,2,1,0,16404,2026-02-22T07:13:44.688Z,2.881312507229278,7.376160018506952,26.441122187868228,508.8118027413312,264.4112218786823,14,737.6160018506952,2.70805020110221,6.604778167294386,3.2786953108989456,6.234041643383181,5.5812804038929915
58a50aebbb9e0f0001aca2a7,46,high,0.956,0.9566075439019134,0.5625,1,36,300,constant,linear,1,1,1,5781,2026-02-22T07:13:50.504Z,1.5775840811437247,4.038615247727935,28.264438893864696,198.01181452478085,282.64438893864696,8,403.86152477279353,2.1972245773362196,6.003545094499321,3.345136208945808,5.293364192433455,5.647721301939853
58a50aebbb9e0f0001aca2a7,40,high,0.956,0.9555591861731836,0.5,1,46,300,diverging,thermal,2,2,1,4696,2026-02-22T07:13:55.221Z,3.731356739595517,9.552273253364524,71.75803973378433,389.8136994937531,717.5803973378432,19,955.2273253364524,2.995732273553991,6.862995672793155,4.274692502351207,5.968230974553584,6.577277595345253
58a50aebbb9e0f0001aca2a7,9002,medium,0.8,0.9005162478768086,7.5,0,47,300,thermal,thermal,2,2,1,1181,2026-02-22T07:13:56.418Z,3.615671498573345,9.256119036347764,48.12238510467189,591.1778040184856,481.2238510467189,18,925.6119036347764,2.9444389791664403,6.831534819473284,3.875823334505133,6.383806934415408,6.178408427499178
58a50aebbb9e0f0001aca2a7,6,low,0.954,0.953237936287073,4.40625,1,38,300,diverging,linear,3,2,0,8094,2026-02-22T07:14:04.536Z,2.7644751640257885,7.077056419906018,25.18343380772006,476.0580567904489,251.8343380772006,14,707.7056419906019,2.70805020110221,6.5634402668267136,3.230149391056046,6.167638195830944,5.532734484050092
58a50aebbb9e0f0001aca2a7,38,high,0.956,0.9561302296225416,0.40625,1,19,200,thermal,constant,2,2,1,3037,2026-02-22T07:14:07.617Z,2.3411209479259294,5.993269626690379,21.910767913134553,393.5618764026461,219.10767913134552,11,599.3269626690379,2.4849066497880004,6.397474444573202,3.0915317842134677,5.977775975648588,5.394116877207513
58a50aebbb9e0f0001aca2a7,18,medium,0.982,0.9821291958727628,0.171875,1,15,100,thermal,thermal,1,1,1,4771,2026-02-22T07:14:12.415Z,2.8126005559803455,7.200257423309685,22.282452207327516,647.0726113933745,222.82452207327518,14,720.0257423309685,2.70805020110221,6.580674840296644,3.1082772682542648,6.47400274469403,5.41086236124831
58a50aebbb9e0f0001aca2a7,27,medium,0.982,0.9825934043372,0.25,1,44,300,constant,thermal,1,1,1,2938,2026-02-22T07:14:15.362Z,4.786778125763763,12.254152001955234,97.51417619309734,721.2787446074294,975.1417619309734,24,1225.4152001955233,3.2188758248682006,7.1118507216389215,4.58102273075169,6.58241113724935,6.883607823745736
58a50aebbb9e0f0001aca2a7,7,low,0.954,0.9543030168094812,10.78125,1,24,200,constant,diverging,2,2,1,13436,2026-02-22T07:14:28.809Z,2.4165249716197965,6.186303927346679,45.552422168931116,403.6674974564562,455.52422168931116,12,618.6303927346679,2.5649493574615367,6.429123159526053,3.8210566651937437,6.003065735971771,6.123641758187789
58a50aebbb9e0f0001aca2a7,39,high,0.956,0.9558175418660548,0.8125,1,35,300,thermal,constant,3,3,1,3548,2026-02-22T07:14:32.375Z,2.3156691937729876,5.928113136058848,19.57263030683137,354.26305180845196,195.7263030683137,11,592.8113136058848,2.4849066497880004,6.386561615037824,2.9792283452114625,5.872858506086844,5.281813438205508
58a50aebbb9e0f0001aca2a7,1,low,0.954,0.953508415843015,0.703125,1,0,100,constant,constant,1,1,1,7072,2026-02-22T07:14:39.460Z,0.6453781276536699,1.6521680067933948,5.369506668184752,84.36847794303083,53.69506668184752,3,165.21680067933949,1.3862943611198906,5.113292964432362,1.6991884237349781,4.4469769219190445,4.001773516729024
58a50aebbb9e0f0001aca2a7,8,low,0.954,0.9546735854022984,6.0,1,5,100,linear,linear,0,0,1,6553,2026-02-22T07:14:46.030Z,1.0519932495315023,2.693102718800646,7.708626980772704,206.3969731677511,77.08626980772704,5,269.3102718800646,1.791759469228055,5.599570454336396,2.0552291456785214,5.334634701512225,4.357814238672567
58a50aebbb9e0f0001aca2a7,44,high,0.956,0.9558544066507372,0.2265625,1,28,200,constant,thermal,0,0,1,7378,2026-02-22T07:14:53.417Z,4.764484141537908,12.197079402337044,99.7909035572375,685.0297021903295,997.9090355723749,24,1219.7079402337044,3.2188758248682006,7.107186248310701,4.604078626025598,6.5309209244421105,6.906663719019643
58a50aebbb9e0f0001aca2a7,5,low,0.954,0.9543517134912036,0.4921875,1,11,100,thermal,diverging,0,0,1,4206,2026-02-22T07:14:57.642Z,2.6173437032854174,6.700399880410669,34.25202916859344,327.3757639579683,342.52029168593435,13,670.0399880410669,2.6390573296152584,6.508828729892064,3.536661090245096,5.794158574483297,5.839246183239141
58a50aebbb9e0f0001aca2a7,3,low,0.954,0.9541597909558868,0.52734375,1,18,200,diverging,constant,3,3,1,3858,2026-02-22T07:15:01.515Z,1.9573615471802173,5.010845560781356,27.15960039811797,261.72496455631426,271.5960039811797,10,501.0845560781356,2.3978952727983707,6.218768543910235,3.3054057672511115,5.571107722843721,5.607990860245157
58a50aebbb9e0f0001aca2a7,9,low,0.954,0.9531859383324134,1.21875,1,13,100,linear,thermal,1,1,1,6269,2026-02-22T07:15:07.788Z,2.2520884811415156,5.76534651172228,40.25654078884822,304.8833067071156,402.5654078884822,11,576.534651172228,2.4849066497880004,6.358768442625731,3.6977534829134844,5.723203678589396,6.00033857590753
58a50aebbb9e0f0001aca2a7,9003,medium,0.8,0.8349188996020465,6.0,0,47,300,thermal,thermal,3,3,1,6156,2026-02-22T07:15:13.951Z,3.615671498573345,9.256119036347764,48.12238510467189,591.1778040184856,481.2238510467189,18,925.6119036347764,2.9444389791664403,6.831534819473284,3.875823334505133,6.383806934415408,6.178408427499178
5b5a822e1ad8270001c4f28d,9,low,0.954,0.9541331634434636,0.84375,1,13,100,linear,thermal,0,1,0,13008,2026-02-22T07:07:01.041Z,2.2520884811415156,5.76534651172228,40.25654078884822,304.8833067071156,402.5654078884822,11,576.534651172228,2.4849066497880004,6.358768442625731,3.6977534829134844,5.723203678589396,6.00033857590753
5b5a822e1ad8270001c4f28d,31,medium,0.982,0.9815491614364216,0.3125,1,7,100,thermal,linear,3,3,1,7870,2026-02-22T07:07:08.940Z,1.9230798928068427,4.923084525585518,27.819417121435134,274.29946167403017,278.19417121435134,9,492.3084525585517,2.302585092994046,6.201134642815278,3.3293224009368205,5.61785945673085,5.631907493930866
5b5a822e1ad8270001c4f28d,35,high,0.956,0.9558232482259328,0.65625,1,8,100,constant,diverging,3,3,1,7554,2026-02-22T07:07:16.507Z,2.4171894600114086,6.188005017629206,48.12170905488188,384.43560734821665,481.2170905488188,12,618.8005017629206,2.5649493574615367,6.429397654909501,3.8758093149885227,5.954374142340996,6.178394407982569
5b5a822e1ad8270001c4f28d,30,medium,0.982,0.9823349831077554,0.40625,1,20,200,constant,linear,2,2,1,9843,2026-02-22T07:07:26.357Z,1.2683794762177183,3.2470514591173587,20.02464142995518,232.22428127289453,200.24641429955182,6,324.7051459117359,1.9459101490553132,5.785992511702159,3.001945006000816,5.452000571152468,5.304530098994862
5b5a822e1ad8270001c4f28d,13,low,0.954,0.9530673379908788,0.5390625,1,25,200,linear,diverging,2,0,0,14562,2026-02-22T07:07:40.939Z,2.3021713043887733,5.89355853923526,18.25794001784437,460.6172876097487,182.57940017844368,11,589.355853923526,2.4849066497880004,6.380725497325851,2.9100621794336994,6.1347361659868564,5.212647272427745
5b5a822e1ad8270001c4f28d,11,low,0.954,0.9546674236339232,0.4453125,1,10,100,diverging,diverging,2,2,1,9570,2026-02-22T07:07:50.523Z,1.8140740116223453,4.644029469753204,22.533130949666123,296.224886623982,225.33130949666122,9,464.4029469753204,2.302585092994046,6.1429035829824805,3.119414804015596,5.694489046296077,5.421999897009641
5b5a822e1ad8270001c4f28d,48,high,0.956,0.955477991862308,1.25,1,12,100,constant,thermal,3,3,1,2937,2026-02-22T07:07:53.489Z,4.77184204311527,12.215915630375092,97.32446798443593,732.3926569381587,973.2446798443593,24,1221.591563037509,3.2188758248682006,7.108728116734489,4.579077390439382,6.597681243231168,6.881662483433428
5b5a822e1ad8270001c4f28d,6,low,0.954,0.9542928143198882,0.9140625,1,38,300,diverging,linear,1,1,1,6647,2026-02-22T07:08:00.156Z,2.7644751640257885,7.077056419906018,25.18343380772006,476.0580567904489,251.8343380772006,14,707.7056419906019,2.70805020110221,6.5634402668267136,3.230149391056046,6.167638195830944,5.532734484050092
5b5a822e1ad8270001c4f28d,3,low,0.954,0.953955852677734,0.66796875,1,18,200,diverging,constant,2,2,1,4294,2026-02-22T07:08:04.472Z,1.9573615471802173,5.010845560781356,27.15960039811797,261.72496455631426,271.5960039811797,10,501.0845560781356,2.3978952727983707,6.218768543910235,3.3054057672511115,5.571107722843721,5.607990860245157
5b5a822e1ad8270001c4f28d,37,high,0.956,0.9566188778765038,0.1484375,1,26,200,diverging,diverging,0,0,1,5410,2026-02-22T07:08:09.906Z,2.479848234116143,6.348411479337326,19.859349631617874,421.63312831481574,198.59349631617874,12,634.8411479337326,2.5649493574615367,6.454948764743259,2.9936976867661826,6.046504493767833,5.2962827797602285
5b5a822e1ad8270001c4f28d,21,medium,0.982,0.9821628305650768,0.203125,1,22,200,diverging,linear,3,3,1,2745,2026-02-22T07:08:12.673Z,2.0500015956242,5.2480040847979526,23.682864783867256,276.7661610276739,236.82864783867257,10,524.8004084797952,2.3978952727983707,6.264921689168426,3.168965354312275,5.626779612345206,5.471550447306321
5b5a822e1ad8270001c4f28d,4,low,0.954,0.9547577317475004,0.703125,1,21,200,linear,linear,0,2,0,5383,2026-02-22T07:08:18.073Z,1.4777457112598829,3.7830290208253,9.984866468557874,254.85762136716605,99.84866468557874,7,378.30290208253,2.0794415416798357,5.938335099819103,2.3110359307193975,5.5446211232270795,4.613621023713443
5b5a822e1ad8270001c4f28d,9000,medium,0.8,0.8681072626177609,7.75,0,47,300,thermal,thermal,0,0,1,5978,2026-02-22T07:08:24.072Z,3.615671498573345,9.256119036347764,48.12238510467189,591.1778040184856,481.2238510467189,18,925.6119036347764,2.9444389791664403,6.831534819473284,3.875823334505133,6.383806934415408,6.178408427499178
5b5a822e1ad8270001c4f28d,47,high,0.956,0.9564142456522572,0.96875,1,4,100,constant,linear,1,1,1,3199,2026-02-22T07:08:27.289Z,1.3013015901633072,3.3313320708180663,25.96312895379382,202.76564804285186,259.6312895379382,6,333.13320708180663,1.9459101490553132,5.811539737065932,3.2605216317875025,5.316970549382303,5.563106724781548
5b5a822e1ad8270001c4f28d,7,low,0.954,0.9541166706053972,0.333984375,1,24,200,constant,diverging,1,1,1,7431,2026-02-22T07:08:34.739Z,2.4165249716197965,6.186303927346679,45.552422168931116,403.6674974564562,455.52422168931116,12,618.6303927346679,2.5649493574615367,6.429123159526053,3.8210566651937437,6.003065735971771,6.123641758187789
5b5a822e1ad8270001c4f28d,25,medium,0.982,0.9818503584112268,0.265625,1,30,200,diverging,thermal,1,1,1,5565,2026-02-22T07:08:40.322Z,2.99243771713488,7.660640555865293,55.74477981468667,357.39447540810903,557.4477981468667,15,766.0640555865293,2.772588722239781,6.6425703123345246,4.022576053191332,5.881634266384059,6.325161146185378
5b5a822e1ad8270001c4f28d,15,low,0.954,0.9547295185955114,1.125,1,31,200,thermal,thermal,0,0,1,4343,2026-02-22T07:08:44.671Z,2.6378752690877065,6.752960688864529,29.192126799973188,505.7586323549438,291.92126799973187,13,675.2960688864529,2.6390573296152584,6.516630951886865,3.3773187700155223,6.228034819927905,5.679903863009568
5b5a822e1ad8270001c4f28d,18,medium,0.982,0.9822727374068406,0.6875,1,15,100,thermal,thermal,3,3,1,3290,2026-02-22T07:08:47.972Z,2.8126005559803455,7.200257423309685,22.282452207327516,647.0726113933745,222.82452207327518,14,720.0257423309685,2.70805020110221,6.580674840296644,3.1082772682542648,6.47400274469403,5.41086236124831
5b5a822e1ad8270001c4f28d,29,medium,0.982,0.9819351143749716,0.234375,1,14,100,diverging,thermal,2,0,0,3097,2026-02-22T07:08:51.091Z,2.8645968946539315,7.333368050314065,54.78138779289425,412.8376920853227,547.8138779289425,14,733.3368050314065,2.70805020110221,6.598967785809949,4.005174270869296,6.02547384885128,6.307759363863342
5b5a822e1ad8270001c4f28d,34,high,0.956,0.9552757104812384,0.875,1,33,300,linear,constant,1,1,1,2131,2026-02-22T07:08:53.242Z,2.5467064085615263,6.519568405917507,28.687270579927805,379.363570050975,286.87270579927804,13,651.9568405917507,2.6390573296152584,6.481511033051926,3.359933295681363,5.941127558606202,5.662518388675409
5b5a822e1ad8270001c4f28d,17,medium,0.982,0.9811302714615772,0.34375,1,43,300,thermal,diverging,2,2,1,5330,2026-02-22T07:08:58.595Z,3.020467416877388,7.732396587206114,27.50386994850128,485.54255107884995,275.0386994850128,15,773.2396587206114,2.772588722239781,6.651881462252149,3.317955978419235,6.187324361478313,5.620541071413281
5b5a822e1ad8270001c4f28d,40,high,0.956,0.9565287522962352,0.75,1,46,300,diverging,thermal,3,0,0,9995,2026-02-22T07:09:08.614Z,3.731356739595517,9.552273253364524,71.75803973378433,389.8136994937531,717.5803973378432,19,955.2273253364524,2.995732273553991,6.862995672793155,4.274692502351207,5.968230974553584,6.577277595345253
5b5a822e1ad8270001c4f28d,22,medium,0.982,0.9813253748100512,0.25,1,23,200,thermal,linear,3,3,1,10262,2026-02-22T07:09:18.899Z,1.9050856947948502,4.877019378674817,17.884476278020077,301.52799602044604,178.84476278020077,9,487.70193786748166,2.302585092994046,6.191752769620164,2.8895089567914325,5.712173822016438,5.192094049785478
5b5a822e1ad8270001c4f28d,23,medium,0.982,0.981772557808405,0.375,1,42,300,diverging,diverging,3,1,0,27328,2026-02-22T07:09:46.249Z,2.44163946848197,6.250597039313843,11.064759177773231,476.38219281880504,110.64759177773232,12,625.0597039313843,2.5649493574615367,6.439445740244624,2.4127623156706255,6.168317412871403,4.715347408664671
5b5a822e1ad8270001c4f28d,33,high,0.956,0.9560903809094056,0.5,1,40,300,constant,diverging,2,2,1,6830,2026-02-22T07:09:53.100Z,2.41375458984558,6.179211750004685,49.46000593292426,212.71104654059232,494.60005932924264,12,617.9211750004685,2.5649493574615367,6.4279779220887265,3.9031841764728847,5.364624852802848,6.205769269466931
5b5a822e1ad8270001c4f28d,9001,medium,0.8,0.8351176551543207,6.0,0,47,300,thermal,thermal,0,0,1,3210,2026-02-22T07:09:56.332Z,3.615671498573345,9.256119036347764,48.12238510467189,591.1778040184856,481.2238510467189,18,925.6119036347764,2.9444389791664403,6.831534819473284,3.875823334505133,6.383806934415408,6.178408427499178
5b5a822e1ad8270001c4f28d,42,high,0.956,0.956475961614104,4.0,1,27,200,thermal,diverging,0,0,1,3679,2026-02-22T07:10:00.019Z,2.836383016754769,7.261140522892208,33.10029122332927,436.5597621511986,331.0029122332927,14,726.1140522892208,2.70805020110221,6.589083345956976,3.5025586476709973,6.081213295671587,5.805143740665043
5b5a822e1ad8270001c4f28d,10,low,0.954,0.9533735523569836,5.4375,1,32,300,constant,constant,2,2,1,4292,2026-02-22T07:10:04.333Z,1.1876694220235262,3.040433720380227,12.29230752693276,210.28102129327064,122.9230752693276,6,304.0433720380227,1.9459101490553132,5.720453969900819,2.5170759193764254,5.35318910181509,4.819661012370471
5b5a822e1ad8270001c4f28d,28,medium,0.982,0.982262805192053,0.21875,1,41,300,linear,diverging,1,3,0,3096,2026-02-22T07:10:07.449Z,2.881312507229278,7.376160018506952,26.441122187868228,508.8118027413312,264.4112218786823,14,737.6160018506952,2.70805020110221,6.604778167294386,3.2786953108989456,6.234041643383181,5.5812804038929915
5b5a822e1ad8270001c4f28d,2,low,0.954,0.9548324968529356,2.765625,1,39,300,thermal,linear,3,2,0,5577,2026-02-22T07:10:13.033Z,3.268442937584798,8.367213920217083,28.277916959817492,620.4214412902381,282.7791695981749,16,836.7213920217083,2.833213344056216,6.730685577447901,3.345611270863964,6.432009501175768,5.64819636385801
5b5a822e1ad8270001c4f28d,38,high,0.956,0.9552661561974808,0.25,1,19,200,thermal,constant,0,0,1,10729,2026-02-22T07:10:23.783Z,2.3411209479259294,5.993269626690379,21.910767913134553,393.5618764026461,219.10767913134552,11,599.3269626690379,2.4849066497880004,6.397474444573202,3.0915317842134677,5.977775975648588,5.394116877207513
5b5a822e1ad8270001c4f28d,41,high,0.956,0.9557728811740008,0.390625,1,1,100,linear,constant,1,0,0,14809,2026-02-22T07:10:38.615Z,0.9987815922556742,2.556880876174526,11.031042441735748,137.73176588541133,110.31042441735748,5,255.6880876174526,1.791759469228055,5.54786168094699,2.40973782143489,4.932542326948488,4.712322914428936
5b5a822e1ad8270001c4f28d,12,low,0.954,0.9549250307770148,0.65625,1,6,100,diverging,linear,1,1,1,3317,2026-02-22T07:10:41.949Z,1.7656857135678048,4.52015542673358,25.714146463756048,203.05757170473194,257.1414646375605,9,452.015542673358,2.302585092994046,6.115926435431655,3.2509226542078573,5.318402168268151,5.553507747201903
5b5a822e1ad8270001c4f28d,44,high,0.956,0.955650065554542,0.625,1,28,200,constant,thermal,1,1,1,15810,2026-02-22T07:10:57.781Z,4.764484141537908,12.197079402337044,99.7909035572375,685.0297021903295,997.9090355723749,24,1219.7079402337044,3.2188758248682006,7.107186248310701,4.604078626025598,6.5309209244421105,6.906663719019643
5b5a822e1ad8270001c4f28d,27,medium,0.982,0.9810135892662024,0.25,1,44,300,constant,thermal,3,3,1,51955,2026-02-22T07:11:49.747Z,4.786778125763763,12.254152001955234,97.51417619309734,721.2787446074294,975.1417619309734,24,1225.4152001955233,3.2188758248682006,7.1118507216389215,4.58102273075169,6.58241113724935,6.883607823745736
5b5a822e1ad8270001c4f28d,14,low,0.954,0.953052283433648,10.21875,1,9,100,linear,diverging,0,0,1,31094,2026-02-22T07:12:20.847Z,1.5269970761611207,3.909112514972469,26.397682327389198,144.37783320074396,263.97682327389197,7,390.9112514972469,2.0794415416798357,5.971035414916568,3.2770572698235814,4.979336099562036,5.579642362817627
5b5a822e1ad8270001c4f28d,20,medium,0.982,0.9827190197254462,1.5,1,34,300,diverging,constant,1,1,1,17003,2026-02-22T07:12:37.864Z,2.5245384918302447,6.4628185390854265,29.568071809215223,349.07719780702075,295.68071809215223,12,646.2818539085426,2.5649493574615367,6.472781831647847,3.3900714442979436,5.8581536953254565,5.692656537291989
5b5a822e1ad8270001c4f28d,1,low,0.954,0.9541540860411228,0.5625,1,0,100,constant,constant,3,2,0,14989,2026-02-22T07:12:52.863Z,0.6453781276536699,1.6521680067933948,5.369506668184752,84.36847794303083,53.69506668184752,3,165.21680067933949,1.3862943611198906,5.113292964432362,1.6991884237349781,4.4469769219190445,4.001773516729024
5b5a822e1ad8270001c4f28d,9002,medium,0.8,0.8686829764366912,7.75,0,47,300,thermal,thermal,1,1,1,2925,2026-02-22T07:12:55.797Z,3.615671498573345,9.256119036347764,48.12238510467189,591.1778040184856,481.2238510467189,18,925.6119036347764,2.9444389791664403,6.831534819473284,3.875823334505133,6.383806934415408,6.178408427499178
5b5a822e1ad8270001c4f28d,16,low,0.954,0.9535168715798183,1.3125,1,29,200,linear,thermal,1,2,0,3295,2026-02-22T07:12:59.114Z,3.1867161903781125,8.157993447367968,43.93242587306041,545.9972771076912,439.32425873060413,16,815.7993447367968,2.833213344056216,6.7053934646180045,3.784926314163189,6.30444382454431,6.087511407157234
5b5a822e1ad8270001c4f28d,19,medium,0.982,0.9823096306223966,0.34375,1,37,300,linear,linear,2,2,1,3561,2026-02-22T07:13:02.697Z,2.084262834675014,5.335712856768035,20.657464068519456,353.8864017773775,206.57464068519457,10,533.5712856768035,2.3978952727983707,6.281465090471798,3.032905896140601,5.87179774327279,5.335490989134646
5b5a822e1ad8270001c4f28d,43,high,0.956,0.9567708005558512,0.53125,1,2,100,diverging,constant,0,0,1,26868,2026-02-22T07:13:29.581Z,1.6015660161061342,4.100009001231704,28.82059881454801,206.84310287412364,288.2059881454801,8,410.00090012317037,2.1972245773362196,6.018595404574543,3.364554102973434,5.336783481958867,5.667139195967479
5b5a822e1ad8270001c4f28d,24,medium,0.982,0.9823138228183276,0.1484375,1,47,300,thermal,thermal,1,1,1,7676,2026-02-22T07:13:37.264Z,3.615671498573345,9.256119036347764,48.12238510467189,591.1778040184856,481.2238510467189,18,925.6119036347764,2.9444389791664403,6.831534819473284,3.875823334505133,6.383806934415408,6.178408427499178
5b5a822e1ad8270001c4f28d,32,medium,0.982,0.9828238599655164,0.15625,1,3,100,thermal,constant,1,2,0,8295,2026-02-22T07:13:45.564Z,2.167861097120163,5.5497244086276165,24.144465225511215,310.6047098129517,241.44465225511215,11,554.9724408627617,2.4849066497880004,6.320718726228514,3.1881883532099593,5.741735428814815,5.490773446204004
5b5a822e1ad8270001c4f28d,46,high,0.956,0.9560659302851592,0.359375,1,36,300,constant,linear,1,1,1,4195,2026-02-22T07:13:49.764Z,1.5775840811437247,4.038615247727935,28.264438893864696,198.01181452478085,282.64438893864696,8,403.86152477279353,2.1972245773362196,6.003545094499321,3.345136208945808,5.293364192433455,5.647721301939853
5b5a822e1ad8270001c4f28d,8,low,0.954,0.9546502708205972,1.40625,1,5,100,linear,linear,2,1,0,4978,2026-02-22T07:13:54.747Z,1.0519932495315023,2.693102718800646,7.708626980772704,206.3969731677511,77.08626980772704,5,269.3102718800646,1.791759469228055,5.599570454336396,2.0552291456785214,5.334634701512225,4.357814238672567
5b5a822e1ad8270001c4f28d,5,low,0.954,0.9537241045952686,0.50390625,1,11,100,thermal,diverging,2,2,1,5295,2026-02-22T07:14:00.047Z,2.6173437032854174,6.700399880410669,34.25202916859344,327.3757639579683,342.52029168593435,13,670.0399880410669,2.6390573296152584,6.508828729892064,3.536661090245096,5.794158574483297,5.839246183239141
5b5a822e1ad8270001c4f28d,26,medium,0.982,0.9810087519147428,0.25,1,45,300,linear,thermal,3,2,0,5895,2026-02-22T07:14:05.948Z,2.785650680918033,7.1312657431501645,36.7654943423159,337.2931034144812,367.65494342315895,14,713.1265743150165,2.70805020110221,6.57106022157924,3.607276000881502,5.823912689573785,5.909861093875548
5b5a822e1ad8270001c4f28d,36,high,0.956,0.955127873169508,0.3125,1,16,200,constant,constant,0,1,0,3810,2026-02-22T07:14:09.763Z,1.0233956594025762,2.619892888070595,9.502234434449335,189.47275312069584,95.02234434449335,5,261.9892888070595,1.791759469228055,5.572113304379044,2.2619958249793486,5.249509156099425,4.5645809179733945
5b5a822e1ad8270001c4f28d,39,high,0.956,0.9559612571357182,0.75,1,35,300,thermal,constant,3,3,1,3512,2026-02-22T07:14:13.280Z,2.3156691937729876,5.928113136058848,19.57263030683137,354.26305180845196,195.7263030683137,11,592.8113136058848,2.4849066497880004,6.386561615037824,2.9792283452114625,5.872858506086844,5.281813438205508
5b5a822e1ad8270001c4f28d,45,high,0.956,0.955870960876446,1.0,1,17,200,linear,constant,3,3,1,1828,2026-02-22T07:14:15.114Z,1.4354249595005972,3.674687896321529,15.47830041770039,179.02331679091822,154.7830041770039,7,367.4687896321529,2.0794415416798357,5.909356012336002,2.7458789470531353,5.193086380228247,5.048464040047181
5b5a822e1ad8270001c4f28d,9003,medium,0.8,0.8421873741151774,7.0,0,47,300,thermal,thermal,1,1,1,6244,2026-02-22T07:14:21.363Z,3.615671498573345,9.256119036347764,48.12238510467189,591.1778040184856,481.2238510467189,18,925.6119036347764,2.9444389791664403,6.831534819473284,3.875823334505133,6.383806934415408,6.178408427499178
5beb38c9aec9ef0001e9c83d,24,medium,0.982,0.9825133439432996,0.125,1,46,300,diverging,thermal,1,1,1,22605,2026-02-22T07:10:17.308Z,3.731356739595517,9.552273253364524,71.75803973378433,389.8136994937531,717.5803973378432,19,955.2273253364524,2.995732273553991,6.862995672793155,4.274692502351207,5.968230974553584,6.577277595345253
5beb38c9aec9ef0001e9c83d,25,medium,0.982,0.9812733684072494,0.203125,1,1,100,linear,constant,2,2,1,16244,2026-02-22T07:10:33.577Z,0.9987815922556742,2.556880876174526,11.031042441735748,137.73176588541133,110.31042441735748,5,255.6880876174526,1.791759469228055,5.54786168094699,2.40973782143489,4.932542326948488,4.712322914428936
5beb38c9aec9ef0001e9c83d,5,low,0.954,0.9533721094320072,0.234375,1,22,200,diverging,linear,3,3,1,89313,2026-02-22T07:12:03.005Z,2.0500015956242,5.2480040847979526,23.682864783867256,276.7661610276739,236.82864783867257,10,524.8004084797952,2.3978952727983707,6.264921689168426,3.168965354312275,5.626779612345206,5.471550447306321
5beb38c9aec9ef0001e9c83d,27,medium,0.982,0.9821219807151416,0.40625,1,2,100,diverging,constant,3,3,1,6309,2026-02-22T07:12:09.365Z,1.6015660161061342,4.100009001231704,28.82059881454801,206.84310287412364,288.2059881454801,8,410.00090012317037,2.1972245773362196,6.018595404574543,3.364554102973434,5.336783481958867,5.667139195967479
5beb38c9aec9ef0001e9c83d,37,high,0.956,0.9563870412695707,0.2109375,1,11,100,thermal,diverging,2,2,1,7835,2026-02-22T07:12:17.274Z,2.6173437032854174,6.700399880410669,34.25202916859344,327.3757639579683,342.52029168593435,13,670.0399880410669,2.6390573296152584,6.508828729892064,3.536661090245096,5.794158574483297,5.839246183239141
5beb38c9aec9ef0001e9c83d,19,medium,0.982,0.9823604066018994,0.53125,1,8,100,constant,diverging,0,0,1,30522,2026-02-22T07:12:47.861Z,2.4171894600114086,6.188005017629206,48.12170905488188,384.43560734821665,481.2170905488188,12,618.8005017629206,2.5649493574615367,6.429397654909501,3.8758093149885227,5.954374142340996,6.178394407982569
5beb38c9aec9ef0001e9c83d,28,medium,0.982,0.9828486509802168,0.171875,1,28,200,constant,thermal,1,1,1,5854,2026-02-22T07:12:53.774Z,4.764484141537908,12.197079402337044,99.7909035572375,685.0297021903295,997.9090355723749,24,1219.7079402337044,3.2188758248682006,7.107186248310701,4.604078626025598,6.5309209244421105,6.906663719019643
5beb38c9aec9ef0001e9c83d,29,medium,0.982,0.9814110790344808,0.15625,1,17,200,linear,constant,0,0,1,16599,2026-02-22T07:13:10.452Z,1.4354249595005972,3.674687896321529,15.47830041770039,179.02331679091822,154.7830041770039,7,367.4687896321529,2.0794415416798357,5.909356012336002,2.7458789470531353,5.193086380228247,5.048464040047181
5beb38c9aec9ef0001e9c83d,3,low,0.954,0.9540516087204776,0.984375,1,37,300,linear,linear,3,3,1,26276,2026-02-22T07:13:36.763Z,2.084262834675014,5.335712856768035,20.657464068519456,353.8864017773775,206.57464068519457,10,533.5712856768035,2.3978952727983707,6.281465090471798,3.032905896140601,5.87179774327279,5.335490989134646
5beb38c9aec9ef0001e9c83d,15,low,0.954,0.9534673335570244,9.09375,1,7,100,thermal,linear,2,2,1,103759,2026-02-22T07:15:20.595Z,1.9230798928068427,4.923084525585518,27.819417121435134,274.29946167403017,278.19417121435134,9,492.3084525585517,2.302585092994046,6.201134642815278,3.3293224009368205,5.61785945673085,5.631907493930866
5beb38c9aec9ef0001e9c83d,8,low,0.954,0.9542355866116292,3.0,1,47,300,thermal,thermal,2,2,1,141296,2026-02-22T07:17:41.959Z,3.615671498573345,9.256119036347764,48.12238510467189,591.1778040184856,481.2238510467189,18,925.6119036347764,2.9444389791664403,6.831534819473284,3.875823334505133,6.383806934415408,6.178408427499178
5beb38c9aec9ef0001e9c83d,47,high,0.956,0.95609598960821,1.0,1,31,200,thermal,thermal,2,2,1,9015,2026-02-22T07:17:51.030Z,2.6378752690877065,6.752960688864529,29.192126799973188,505.7586323549438,291.92126799973187,13,675.2960688864529,2.6390573296152584,6.516630951886865,3.3773187700155223,6.228034819927905,5.679903863009568
5beb38c9aec9ef0001e9c83d,9000,medium,0.8,0.8306771891143951,6.0,0,47,300,thermal,thermal,2,2,1,7810,2026-02-22T07:17:58.882Z,3.615671498573345,9.256119036347764,48.12238510467189,591.1778040184856,481.2238510467189,18,925.6119036347764,2.9444389791664403,6.831534819473284,3.875823334505133,6.383806934415408,6.178408427499178
5beb38c9aec9ef0001e9c83d,13,low,0.954,0.9548297968625176,0.4453125,1,14,100,diverging,thermal,2,3,0,142240,2026-02-22T07:20:21.168Z,2.8645968946539315,7.333368050314065,54.78138779289425,412.8376920853227,547.8138779289425,14,733.3368050314065,2.70805020110221,6.598967785809949,4.005174270869296,6.02547384885128,6.307759363863342
5beb38c9aec9ef0001e9c83d,18,medium,0.982,0.9820972324859808,0.1875,1,33,300,linear,constant,2,2,1,12905,2026-02-22T07:20:34.123Z,2.5467064085615263,6.519568405917507,28.687270579927805,379.363570050975,286.87270579927804,13,651.9568405917507,2.6390573296152584,6.481511033051926,3.359933295681363,5.941127558606202,5.662518388675409
5beb38c9aec9ef0001e9c83d,11,low,0.954,0.953079227048945,0.65625,1,44,300,constant,thermal,2,2,1,136263,2026-02-22T07:22:50.439Z,4.786778125763763,12.254152001955234,97.51417619309734,721.2787446074294,975.1417619309734,24,1225.4152001955233,3.2188758248682006,7.1118507216389215,4.58102273075169,6.58241113724935,6.883607823745736
5beb38c9aec9ef0001e9c83d,39,high,0.956,0.956454328692796,0.5625,1,24,200,constant,diverging,3,3,1,9877,2026-02-22T07:23:00.343Z,2.4165249716197965,6.186303927346679,45.552422168931116,403.6674974564562,455.52422168931116,12,618.6303927346679,2.5649493574615367,6.429123159526053,3.8210566651937437,6.003065735971771,6.123641758187789
5beb38c9aec9ef0001e9c83d,16,low,0.954,0.9535214524450566,11.109375,1,3,100,thermal,constant,1,1,1,50904,2026-02-22T07:23:51.278Z,2.167861097120163,5.5497244086276165,24.144465225511215,310.6047098129517,241.44465225511215,11,554.9724408627617,2.4849066497880004,6.320718726228514,3.1881883532099593,5.741735428814815,5.490773446204004
5beb38c9aec9ef0001e9c83d,23,medium,0.982,0.9817891044320286,0.234375,1,35,300,thermal,constant,3,3,1,15607,2026-02-22T07:24:06.965Z,2.3156691937729876,5.928113136058848,19.57263030683137,354.26305180845196,195.7263030683137,11,592.8113136058848,2.4849066497880004,6.386561615037824,2.9792283452114625,5.872858506086844,5.281813438205508
5beb38c9aec9ef0001e9c83d,14,low,0.954,0.9540436782882608,0.890625,1,20,200,constant,linear,3,3,1,61596,2026-02-22T07:25:08.624Z,1.2683794762177183,3.2470514591173587,20.02464142995518,232.22428127289453,200.24641429955182,6,324.7051459117359,1.9459101490553132,5.785992511702159,3.001945006000816,5.452000571152468,5.304530098994862
5beb38c9aec9ef0001e9c83d,22,medium,0.982,0.9810237295493116,0.15625,1,19,200,thermal,constant,1,1,1,42560,2026-02-22T07:25:51.228Z,2.3411209479259294,5.993269626690379,21.910767913134553,393.5618764026461,219.10767913134552,11,599.3269626690379,2.4849066497880004,6.397474444573202,3.0915317842134677,5.977775975648588,5.394116877207513
5beb38c9aec9ef0001e9c83d,42,high,0.956,0.955521780783658,0.375,1,32,300,constant,constant,1,1,1,4712,2026-02-22T07:25:55.992Z,1.1876694220235262,3.040433720380227,12.29230752693276,210.28102129327064,122.9230752693276,6,304.0433720380227,1.9459101490553132,5.720453969900819,2.5170759193764254,5.35318910181509,4.819661012370471
5beb38c9aec9ef0001e9c83d,21,medium,0.982,0.9820693705979768,0.234375,1,26,200,diverging,diverging,1,1,1,6287,2026-02-22T07:26:02.334Z,2.479848234116143,6.348411479337326,19.859349631617874,421.63312831481574,198.59349631617874,12,634.8411479337326,2.5649493574615367,6.454948764743259,2.9936976867661826,6.046504493767833,5.2962827797602285
5beb38c9aec9ef0001e9c83d,44,high,0.956,0.9568478500750116,0.75,1,6,100,diverging,linear,1,1,1,8260,2026-02-22T07:26:10.644Z,1.7656857135678048,4.52015542673358,25.714146463756048,203.05757170473194,257.1414646375605,9,452.015542673358,2.302585092994046,6.115926435431655,3.2509226542078573,5.318402168268151,5.553507747201903
5beb38c9aec9ef0001e9c83d,7,low,0.954,0.9541224123291518,0.515625,1,42,300,diverging,diverging,1,0,0,203030,2026-02-22T07:29:33.743Z,2.44163946848197,6.250597039313843,11.064759177773231,476.38219281880504,110.64759177773232,12,625.0597039313843,2.5649493574615367,6.439445740244624,2.4127623156706255,6.168317412871403,4.715347408664671
5beb38c9aec9ef0001e9c83d,9001,medium,0.8,0.8616490183243213,7.999992370605469,0,47,300,thermal,thermal,3,3,1,7460,2026-02-22T07:29:41.253Z,3.615671498573345,9.256119036347764,48.12238510467189,591.1778040184856,481.2238510467189,18,925.6119036347764,2.9444389791664403,6.831534819473284,3.875823334505133,6.383806934415408,6.178408427499178
5beb38c9aec9ef0001e9c83d,38,high,0.956,0.9564584362571232,0.6875,1,38,300,diverging,linear,0,0,1,17606,2026-02-22T07:29:58.902Z,2.7644751640257885,7.077056419906018,25.18343380772006,476.0580567904489,251.8343380772006,14,707.7056419906019,2.70805020110221,6.5634402668267136,3.230149391056046,6.167638195830944,5.532734484050092
5beb38c9aec9ef0001e9c83d,32,medium,0.982,0.9821203462112909,0.265625,1,12,100,constant,thermal,0,0,1,4010,2026-02-22T07:30:02.980Z,4.77184204311527,12.215915630375092,97.32446798443593,732.3926569381587,973.2446798443593,24,1221.591563037509,3.2188758248682006,7.108728116734489,4.579077390439382,6.597681243231168,6.881662483433428
5beb38c9aec9ef0001e9c83d,45,high,0.956,0.9559152923086848,0.875,1,25,200,linear,diverging,3,3,1,8737,2026-02-22T07:30:11.788Z,2.3021713043887733,5.89355853923526,18.25794001784437,460.6172876097487,182.57940017844368,11,589.355853923526,2.4849066497880004,6.380725497325851,2.9100621794336994,6.1347361659868564,5.212647272427745
5beb38c9aec9ef0001e9c83d,36,high,0.956,0.9568077983808314,0.875,1,21,200,linear,linear,3,3,1,6420,2026-02-22T07:30:18.220Z,1.4777457112598829,3.7830290208253,9.984866468557874,254.85762136716605,99.84866468557874,7,378.30290208253,2.0794415416798357,5.938335099819103,2.3110359307193975,5.5446211232270795,4.613621023713443
5beb38c9aec9ef0001e9c83d,17,medium,0.982,0.9819313790860122,0.125,1,40,300,constant,diverging,3,3,1,65603,2026-02-22T07:31:23.935Z,2.41375458984558,6.179211750004685,49.46000593292426,212.71104654059232,494.60005932924264,12,617.9211750004685,2.5649493574615367,6.4279779220887265,3.9031841764728847,5.364624852802848,6.205769269466931
5beb38c9aec9ef0001e9c83d,43,high,0.956,0.9551000829436764,0.3125,1,10,100,diverging,diverging,3,3,1,7163,2026-02-22T07:31:31.178Z,1.8140740116223453,4.644029469753204,22.533130949666123,296.224886623982,225.33130949666122,9,464.4029469753204,2.302585092994046,6.1429035829824805,3.119414804015596,5.694489046296077,5.421999897009641
5beb38c9aec9ef0001e9c83d,9,low,0.954,0.9539939177621074,7.03125,1,30,200,diverging,thermal,2,2,1,6584,2026-02-22T07:31:37.823Z,2.99243771713488,7.660640555865293,55.74477981468667,357.39447540810903,557.4477981468667,15,766.0640555865293,2.772588722239781,6.6425703123345246,4.022576053191332,5.881634266384059,6.325161146185378
5beb38c9aec9ef0001e9c83d,1,low,0.954,0.9548405203998692,0.6796875,1,43,300,thermal,diverging,2,2,1,328,2026-02-22T07:31:38.225Z,3.020467416877388,7.732396587206114,27.50386994850128,485.54255107884995,275.0386994850128,15,773.2396587206114,2.772588722239781,6.651881462252149,3.317955978419235,6.187324361478313,5.620541071413281
5beb38c9aec9ef0001e9c83d,31,medium,0.982,0.98157032651611,0.25,1,4,100,constant,linear,3,3,1,35623,2026-02-22T07:32:13.855Z,1.3013015901633072,3.3313320708180663,25.96312895379382,202.76564804285186,259.6312895379382,6,333.13320708180663,1.9459101490553132,5.811539737065932,3.2605216317875025,5.316970549382303,5.563106724781548
5beb38c9aec9ef0001e9c83d,2,low,0.954,0.9538885802326031,0.310546875,1,15,100,thermal,thermal,3,3,1,16007,2026-02-22T07:32:29.938Z,2.8126005559803455,7.200257423309685,22.282452207327516,647.0726113933745,222.82452207327518,14,720.0257423309685,2.70805020110221,6.580674840296644,3.1082772682542648,6.47400274469403,5.41086236124831
5beb38c9aec9ef0001e9c83d,12,low,0.954,0.9539647348409038,1.6875,1,41,300,linear,diverging,0,3,0,108902,2026-02-22T07:34:18.916Z,2.881312507229278,7.376160018506952,26.441122187868228,508.8118027413312,264.4112218786823,14,737.6160018506952,2.70805020110221,6.604778167294386,3.2786953108989456,6.234041643383181,5.5812804038929915
5beb38c9aec9ef0001e9c83d,40,high,0.956,0.9559573395999224,4.0,1,5,100,linear,linear,0,0,1,11490,2026-02-22T07:34:30.476Z,1.0519932495315023,2.693102718800646,7.708626980772704,206.3969731677511,77.08626980772704,5,269.3102718800646,1.791759469228055,5.599570454336396,2.0552291456785214,5.334634701512225,4.357814238672567
5beb38c9aec9ef0001e9c83d,9002,medium,0.8,0.8902110793700955,4.0,0,47,300,thermal,thermal,1,1,1,4981,2026-02-22T07:34:35.517Z,3.615671498573345,9.256119036347764,48.12238510467189,591.1778040184856,481.2238510467189,18,925.6119036347764,2.9444389791664403,6.831534819473284,3.875823334505133,6.383806934415408,6.178408427499178
5beb38c9aec9ef0001e9c83d,4,low,0.954,0.953222216238688,0.421875,1,34,300,diverging,constant,0,0,1,5284,2026-02-22T07:34:40.843Z,2.5245384918302447,6.4628185390854265,29.568071809215223,349.07719780702075,295.68071809215223,12,646.2818539085426,2.5649493574615367,6.472781831647847,3.3900714442979436,5.8581536953254565,5.692656537291989
5beb38c9aec9ef0001e9c83d,46,high,0.956,0.9556584271682564,4.0,1,9,100,linear,diverging,1,1,1,4061,2026-02-22T07:34:44.939Z,1.5269970761611207,3.909112514972469,26.397682327389198,144.37783320074396,263.97682327389197,7,390.9112514972469,2.0794415416798357,5.971035414916568,3.2770572698235814,4.979336099562036,5.579642362817627
5beb38c9aec9ef0001e9c83d,41,high,0.956,0.9558596501875164,0.4375,1,13,100,linear,thermal,3,3,1,6779,2026-02-22T07:34:51.797Z,2.2520884811415156,5.76534651172228,40.25654078884822,304.8833067071156,402.5654078884822,11,576.534651172228,2.4849066497880004,6.358768442625731,3.6977534829134844,5.723203678589396,6.00033857590753
5beb38c9aec9ef0001e9c83d,33,high,0.956,0.9568108405623464,0.875,1,0,100,constant,constant,1,1,1,5866,2026-02-22T07:34:57.693Z,0.6453781276536699,1.6521680067933948,5.369506668184752,84.36847794303083,53.69506668184752,3,165.21680067933949,1.3862943611198906,5.113292964432362,1.6991884237349781,4.4469769219190445,4.001773516729024
5beb38c9aec9ef0001e9c83d,30,medium,0.982,0.9817937586297524,0.1171875,1,36,300,constant,linear,3,3,1,29599,2026-02-22T07:35:27.317Z,1.5775840811437247,4.038615247727935,28.264438893864696,198.01181452478085,282.64438893864696,8,403.86152477279353,2.1972245773362196,6.003545094499321,3.345136208945808,5.293364192433455,5.647721301939853
5beb38c9aec9ef0001e9c83d,35,high,0.956,0.9560320740182138,0.59375,1,18,200,diverging,constant,2,2,1,4548,2026-02-22T07:35:31.893Z,1.9573615471802173,5.010845560781356,27.15960039811797,261.72496455631426,271.5960039811797,10,501.0845560781356,2.3978952727983707,6.218768543910235,3.3054057672511115,5.571107722843721,5.607990860245157
5beb38c9aec9ef0001e9c83d,20,medium,0.982,0.9825994190489464,0.25,1,16,200,constant,constant,2,2,1,23353,2026-02-22T07:35:55.270Z,1.0233956594025762,2.619892888070595,9.502234434449335,189.47275312069584,95.02234434449335,5,261.9892888070595,1.791759469228055,5.572113304379044,2.2619958249793486,5.249509156099425,4.5645809179733945
5beb38c9aec9ef0001e9c83d,26,medium,0.982,0.9823349491765256,0.08203125,1,27,200,thermal,diverging,0,0,1,15758,2026-02-22T07:36:11.054Z,2.836383016754769,7.261140522892208,33.10029122332927,436.5597621511986,331.0029122332927,14,726.1140522892208,2.70805020110221,6.589083345956976,3.5025586476709973,6.081213295671587,5.805143740665043
5beb38c9aec9ef0001e9c83d,48,high,0.956,0.95640634792782,0.59375,1,29,200,linear,thermal,2,2,1,6520,2026-02-22T07:36:17.599Z,3.1867161903781125,8.157993447367968,43.93242587306041,545.9972771076912,439.32425873060413,16,815.7993447367968,2.833213344056216,6.7053934646180045,3.784926314163189,6.30444382454431,6.087511407157234
5beb38c9aec9ef0001e9c83d,10,low,0.954,0.9539967406507752,0.3984375,1,45,300,linear,thermal,2,2,1,23052,2026-02-22T07:36:40.676Z,2.785650680918033,7.1312657431501645,36.7654943423159,337.2931034144812,367.65494342315895,14,713.1265743150165,2.70805020110221,6.57106022157924,3.607276000881502,5.823912689573785,5.909861093875548
5beb38c9aec9ef0001e9c83d,6,low,0.954,0.9538589946121634,9.0,1,23,200,thermal,linear,2,2,1,62729,2026-02-22T07:37:43.430Z,1.9050856947948502,4.877019378674817,17.884476278020077,301.52799602044604,178.84476278020077,9,487.70193786748166,2.302585092994046,6.191752769620164,2.8895089567914325,5.712173822016438,5.192094049785478
5beb38c9aec9ef0001e9c83d,34,high,0.956,0.9558879843902588,0.8125,1,39,300,thermal,linear,2,2,1,8083,2026-02-22T07:37:51.522Z,3.268442937584798,8.367213920217083,28.277916959817492,620.4214412902381,282.7791695981749,16,836.7213920217083,2.833213344056216,6.730685577447901,3.345611270863964,6.432009501175768,5.64819636385801
5beb38c9aec9ef0001e9c83d,9003,medium,0.8,0.8251626668920684,7.75,0,47,300,thermal,thermal,2,2,1,4755,2026-02-22T07:37:56.285Z,3.615671498573345,9.256119036347764,48.12238510467189,591.1778040184856,481.2238510467189,18,925.6119036347764,2.9444389791664403,6.831534819473284,3.875823334505133,6.383806934415408,6.178408427499178
5cde02d000d670000184ea3b,44,high,0.956,0.956172631716202,0.40625,1,6,100,diverging,linear,3,3,1,8303,2026-02-22T07:05:46.370Z,1.7656857135678048,4.52015542673358,25.714146463756048,203.05757170473194,257.1414646375605,9,452.015542673358,2.302585092994046,6.115926435431655,3.2509226542078573,5.318402168268151,5.553507747201903
5cde02d000d670000184ea3b,28,medium,0.982,0.9816390587207504,0.328125,1,28,200,constant,thermal,0,0,1,3291,2026-02-22T07:05:49.684Z,4.764484141537908,12.197079402337044,99.7909035572375,685.0297021903295,997.9090355723749,24,1219.7079402337044,3.2188758248682006,7.107186248310701,4.604078626025598,6.5309209244421105,6.906663719019643
5cde02d000d670000184ea3b,31,medium,0.982,0.9811609326361322,0.375,1,4,100,constant,linear,1,1,1,7110,2026-02-22T07:05:56.816Z,1.3013015901633072,3.3313320708180663,25.96312895379382,202.76564804285186,259.6312895379382,6,333.13320708180663,1.9459101490553132,5.811539737065932,3.2605216317875025,5.316970549382303,5.563106724781548
5cde02d000d670000184ea3b,35,high,0.956,0.9569921909310292,1.0,1,18,200,diverging,constant,0,0,1,3746,2026-02-22T07:06:00.602Z,1.9573615471802173,5.010845560781356,27.15960039811797,261.72496455631426,271.5960039811797,10,501.0845560781356,2.3978952727983707,6.218768543910235,3.3054057672511115,5.571107722843721,5.607990860245157
5cde02d000d670000184ea3b,30,medium,0.982,0.981707306764959,0.25,1,36,300,constant,linear,0,0,1,2876,2026-02-22T07:06:03.517Z,1.5775840811437247,4.038615247727935,28.264438893864696,198.01181452478085,282.64438893864696,8,403.86152477279353,2.1972245773362196,6.003545094499321,3.345136208945808,5.293364192433455,5.647721301939853
5cde02d000d670000184ea3b,2,low,0.954,0.9544559941459112,11.53125,1,15,100,thermal,thermal,0,0,1,17931,2026-02-22T07:06:21.476Z,2.8126005559803455,7.200257423309685,22.282452207327516,647.0726113933745,222.82452207327518,14,720.0257423309685,2.70805020110221,6.580674840296644,3.1082772682542648,6.47400274469403,5.41086236124831
5cde02d000d670000184ea3b,27,medium,0.982,0.9821243025180476,0.234375,1,2,100,diverging,constant,3,3,1,13979,2026-02-22T07:06:35.485Z,1.6015660161061342,4.100009001231704,28.82059881454801,206.84310287412364,288.2059881454801,8,410.00090012317037,2.1972245773362196,6.018595404574543,3.364554102973434,5.336783481958867,5.667139195967479
5cde02d000d670000184ea3b,13,low,0.954,0.9537721462593824,6.375,1,14,100,diverging,thermal,0,0,1,27081,2026-02-22T07:07:02.605Z,2.8645968946539315,7.333368050314065,54.78138779289425,412.8376920853227,547.8138779289425,14,733.3368050314065,2.70805020110221,6.598967785809949,4.005174270869296,6.02547384885128,6.307759363863342
5cde02d000d670000184ea3b,6,low,0.954,0.9539499156690864,1.7578125,1,23,200,thermal,linear,0,0,1,20249,2026-02-22T07:07:22.886Z,1.9050856947948502,4.877019378674817,17.884476278020077,301.52799602044604,178.84476278020077,9,487.70193786748166,2.302585092994046,6.191752769620164,2.8895089567914325,5.712173822016438,5.192094049785478
5cde02d000d670000184ea3b,17,medium,0.982,0.9810036003542107,0.21875,1,40,300,constant,diverging,1,1,1,4403,2026-02-22T07:07:27.333Z,2.41375458984558,6.179211750004685,49.46000593292426,212.71104654059232,494.60005932924264,12,617.9211750004685,2.5649493574615367,6.4279779220887265,3.9031841764728847,5.364624852802848,6.205769269466931
5cde02d000d670000184ea3b,14,low,0.954,0.9546631071907736,0.796875,1,20,200,constant,linear,0,0,1,8380,2026-02-22T07:07:35.742Z,1.2683794762177183,3.2470514591173587,20.02464142995518,232.22428127289453,200.24641429955182,6,324.7051459117359,1.9459101490553132,5.785992511702159,3.001945006000816,5.452000571152468,5.304530098994862
5cde02d000d670000184ea3b,21,medium,0.982,0.9822123668278424,0.171875,1,26,200,diverging,diverging,0,0,1,3450,2026-02-22T07:07:39.226Z,2.479848234116143,6.348411479337326,19.859349631617874,421.63312831481574,198.59349631617874,12,634.8411479337326,2.5649493574615367,6.454948764743259,2.9936976867661826,6.046504493767833,5.2962827797602285
5cde02d000d670000184ea3b,9000,medium,0.8,0.8426859381918869,7.0,0,47,300,thermal,thermal,1,1,1,3118,2026-02-22T07:07:42.370Z,3.615671498573345,9.256119036347764,48.12238510467189,591.1778040184856,481.2238510467189,18,925.6119036347764,2.9444389791664403,6.831534819473284,3.875823334505133,6.383806934415408,6.178408427499178
5cde02d000d670000184ea3b,22,medium,0.982,0.9819790888393886,0.234375,1,19,200,thermal,constant,0,0,1,2650,2026-02-22T07:07:45.044Z,2.3411209479259294,5.993269626690379,21.910767913134553,393.5618764026461,219.10767913134552,11,599.3269626690379,2.4849066497880004,6.397474444573202,3.0915317842134677,5.977775975648588,5.394116877207513
5cde02d000d670000184ea3b,40,high,0.956,0.9553025091408898,0.6875,1,5,100,linear,linear,1,1,1,2916,2026-02-22T07:07:47.986Z,1.0519932495315023,2.693102718800646,7.708626980772704,206.3969731677511,77.08626980772704,5,269.3102718800646,1.791759469228055,5.599570454336396,2.0552291456785214,5.334634701512225,4.357814238672567
5cde02d000d670000184ea3b,46,high,0.956,0.956148372848038,0.375,1,9,100,linear,diverging,2,2,1,2636,2026-02-22T07:07:50.651Z,1.5269970761611207,3.909112514972469,26.397682327389198,144.37783320074396,263.97682327389197,7,390.9112514972469,2.0794415416798357,5.971035414916568,3.2770572698235814,4.979336099562036,5.579642362817627
5cde02d000d670000184ea3b,23,medium,0.982,0.9828681757815186,0.234375,1,35,300,thermal,constant,2,2,1,2788,2026-02-22T07:07:53.454Z,2.3156691937729876,5.928113136058848,19.57263030683137,354.26305180845196,195.7263030683137,11,592.8113136058848,2.4849066497880004,6.386561615037824,2.9792283452114625,5.872858506086844,5.281813438205508
5cde02d000d670000184ea3b,42,high,0.956,0.9569702471780818,6.125,1,32,300,constant,constant,3,3,1,2257,2026-02-22T07:07:55.744Z,1.1876694220235262,3.040433720380227,12.29230752693276,210.28102129327064,122.9230752693276,6,304.0433720380227,1.9459101490553132,5.720453969900819,2.5170759193764254,5.35318910181509,4.819661012370471
5cde02d000d670000184ea3b,41,high,0.956,0.955573934294006,0.5,1,13,100,linear,thermal,0,0,1,2230,2026-02-22T07:07:58.000Z,2.2520884811415156,5.76534651172228,40.25654078884822,304.8833067071156,402.5654078884822,11,576.534651172228,2.4849066497880004,6.358768442625731,3.6977534829134844,5.723203678589396,6.00033857590753
5cde02d000d670000184ea3b,36,high,0.956,0.955922560105116,1.0625,1,21,200,linear,linear,0,0,1,1896,2026-02-22T07:07:59.917Z,1.4777457112598829,3.7830290208253,9.984866468557874,254.85762136716605,99.84866468557874,7,378.30290208253,2.0794415416798357,5.938335099819103,2.3110359307193975,5.5446211232270795,4.613621023713443
5cde02d000d670000184ea3b,1,low,0.954,0.9541170205141932,0.65625,1,43,300,thermal,diverging,1,0,0,3727,2026-02-22T07:08:03.666Z,3.020467416877388,7.732396587206114,27.50386994850128,485.54255107884995,275.0386994850128,15,773.2396587206114,2.772588722239781,6.651881462252149,3.317955978419235,6.187324361478313,5.620541071413281
5cde02d000d670000184ea3b,15,low,0.954,0.9544262055123858,0.796875,1,7,100,thermal,linear,2,0,0,26810,2026-02-22T07:08:30.501Z,1.9230798928068427,4.923084525585518,27.819417121435134,274.29946167403017,278.19417121435134,9,492.3084525585517,2.302585092994046,6.201134642815278,3.3293224009368205,5.61785945673085,5.631907493930866
5cde02d000d670000184ea3b,48,high,0.956,0.956928349577204,0.53125,1,29,200,linear,thermal,3,3,1,5791,2026-02-22T07:08:36.329Z,3.1867161903781125,8.157993447367968,43.93242587306041,545.9972771076912,439.32425873060413,16,815.7993447367968,2.833213344056216,6.7053934646180045,3.784926314163189,6.30444382454431,6.087511407157234
5cde02d000d670000184ea3b,20,medium,0.982,0.9814847849320488,0.8125,1,16,200,constant,constant,0,0,1,15331,2026-02-22T07:08:51.682Z,1.0233956594025762,2.619892888070595,9.502234434449335,189.47275312069584,95.02234434449335,5,261.9892888070595,1.791759469228055,5.572113304379044,2.2619958249793486,5.249509156099425,4.5645809179733945
5cde02d000d670000184ea3b,34,high,0.956,0.9564994280498844,0.75,1,39,300,thermal,linear,0,0,1,2413,2026-02-22T07:08:54.118Z,3.268442937584798,8.367213920217083,28.277916959817492,620.4214412902381,282.7791695981749,16,836.7213920217083,2.833213344056216,6.730685577447901,3.345611270863964,6.432009501175768,5.64819636385801
5cde02d000d670000184ea3b,9001,medium,0.8,0.8190294463032224,6.0,0,47,300,thermal,thermal,2,2,1,5219,2026-02-22T07:08:59.360Z,3.615671498573345,9.256119036347764,48.12238510467189,591.1778040184856,481.2238510467189,18,925.6119036347764,2.9444389791664403,6.831534819473284,3.875823334505133,6.383806934415408,6.178408427499178
5cde02d000d670000184ea3b,47,high,0.956,0.9566016691590252,1.0,1,31,200,thermal,thermal,2,2,1,2269,2026-02-22T07:09:01.651Z,2.6378752690877065,6.752960688864529,29.192126799973188,505.7586323549438,291.92126799973187,13,675.2960688864529,2.6390573296152584,6.516630951886865,3.3773187700155223,6.228034819927905,5.679903863009568
5cde02d000d670000184ea3b,10,low,0.954,0.9530451472205552,0.38671875,1,45,300,linear,thermal,2,0,0,18624,2026-02-22T07:09:20.296Z,2.785650680918033,7.1312657431501645,36.7654943423159,337.2931034144812,367.65494342315895,14,713.1265743150165,2.70805020110221,6.57106022157924,3.607276000881502,5.823912689573785,5.909861093875548
5cde02d000d670000184ea3b,29,medium,0.982,0.9823001584468298,0.140625,1,17,200,linear,constant,2,2,1,2647,2026-02-22T07:09:22.964Z,1.4354249595005972,3.674687896321529,15.47830041770039,179.02331679091822,154.7830041770039,7,367.4687896321529,2.0794415416798357,5.909356012336002,2.7458789470531353,5.193086380228247,5.048464040047181
5cde02d000d670000184ea3b,32,medium,0.982,0.9811766924737784,0.3125,1,12,100,constant,thermal,0,1,0,13762,2026-02-22T07:09:36.743Z,4.77184204311527,12.215915630375092,97.32446798443593,732.3926569381587,973.2446798443593,24,1221.591563037509,3.2188758248682006,7.108728116734489,4.579077390439382,6.597681243231168,6.881662483433428
5cde02d000d670000184ea3b,43,high,0.956,0.9559664127917892,0.8125,1,10,100,diverging,diverging,0,0,1,4222,2026-02-22T07:09:41.038Z,1.8140740116223453,4.644029469753204,22.533130949666123,296.224886623982,225.33130949666122,9,464.4029469753204,2.302585092994046,6.1429035829824805,3.119414804015596,5.694489046296077,5.421999897009641
5cde02d000d670000184ea3b,11,low,0.954,0.9541661580772548,0.7734375,1,44,300,constant,thermal,1,1,1,2924,2026-02-22T07:09:43.983Z,4.786778125763763,12.254152001955234,97.51417619309734,721.2787446074294,975.1417619309734,24,1225.4152001955233,3.2188758248682006,7.1118507216389215,4.58102273075169,6.58241113724935,6.883607823745736
5cde02d000d670000184ea3b,19,medium,0.982,0.9815472979751808,0.265625,1,8,100,constant,diverging,3,3,1,2999,2026-02-22T07:09:47.008Z,2.4171894600114086,6.188005017629206,48.12170905488188,384.43560734821665,481.2170905488188,12,618.8005017629206,2.5649493574615367,6.429397654909501,3.8758093149885227,5.954374142340996,6.178394407982569
5cde02d000d670000184ea3b,33,high,0.956,0.9562211924652884,0.34375,1,0,100,constant,constant,2,2,1,4364,2026-02-22T07:09:51.394Z,0.6453781276536699,1.6521680067933948,5.369506668184752,84.36847794303083,53.69506668184752,3,165.21680067933949,1.3862943611198906,5.113292964432362,1.6991884237349781,4.4469769219190445,4.001773516729024
5cde02d000d670000184ea3b,26,medium,0.982,0.9822014795737204,0.1171875,1,27,200,thermal,diverging,3,3,1,8791,2026-02-22T07:10:00.210Z,2.836383016754769,7.261140522892208,33.10029122332927,436.5597621511986,331.0029122332927,14,726.1140522892208,2.70805020110221,6.589083345956976,3.5025586476709973,6.081213295671587,5.805143740665043
5cde02d000d670000184ea3b,8,low,0.954,0.953750135353264,3.0,1,47,300,thermal,thermal,0,3,0,22605,2026-02-22T07:10:22.840Z,3.615671498573345,9.256119036347764,48.12238510467189,591.1778040184856,481.2238510467189,18,925.6119036347764,2.9444389791664403,6.831534819473284,3.875823334505133,6.383806934415408,6.178408427499178
5cde02d000d670000184ea3b,37,high,0.956,0.9563458562624864,0.46875,1,11,100,thermal,diverging,2,2,1,3301,2026-02-22T07:10:26.165Z,2.6173437032854174,6.700399880410669,34.25202916859344,327.3757639579683,342.52029168593435,13,670.0399880410669,2.6390573296152584,6.508828729892064,3.536661090245096,5.794158574483297,5.839246183239141
5cde02d000d670000184ea3b,38,high,0.956,0.955561681996256,0.46875,1,38,300,diverging,linear,2,2,1,2778,2026-02-22T07:10:28.969Z,2.7644751640257885,7.077056419906018,25.18343380772006,476.0580567904489,251.8343380772006,14,707.7056419906019,2.70805020110221,6.5634402668267136,3.230149391056046,6.167638195830944,5.532734484050092
5cde02d000d670000184ea3b,9002,medium,0.8,0.8005430256785631,6.0,0,47,300,thermal,thermal,1,1,1,4469,2026-02-22T07:10:33.469Z,3.615671498573345,9.256119036347764,48.12238510467189,591.1778040184856,481.2238510467189,18,925.6119036347764,2.9444389791664403,6.831534819473284,3.875823334505133,6.383806934415408,6.178408427499178
5cde02d000d670000184ea3b,18,medium,0.982,0.9821579189279412,0.125,1,33,300,linear,constant,0,1,0,32269,2026-02-22T07:11:05.766Z,2.5467064085615263,6.519568405917507,28.687270579927805,379.363570050975,286.87270579927804,13,651.9568405917507,2.6390573296152584,6.481511033051926,3.359933295681363,5.941127558606202,5.662518388675409
