participantId,trialId,frequencyId,targetSSIM,actualSSIM,actualMagnitude,repetition,colormapId,colormapHue,colormapChromaPattern,colormapLumaPattern,targetPosition,selectedPosition,isCorrect,reactionTimeMs,timestamp,correct,reactionTime,ciede2000_discriminative,contrast_sensitivity,hue_discriminative,luminance_variation,chromatic_variation,LAB_Length,color_name_variation,categorization,log_categorization,logLAB_Length,log_hue_discriminative,log_luminance_variation,log_chromatic_variation,log_color_name_variation
560f54b3d4ab1e00126fb99f,22,medium,0.982,0.982525243201841,0.171875,1,38,300,diverging,linear,1,1,1,5175,2026-02-22T02:49:10.398Z,1,5175,38.70242322962777,185.79386115733928,300.3174226083436,52.54835530720002,128.85482182232064,301.1629633967739,3.321691950707361,243.60403904503056,5.499640735974588,5.710966485732247,5.705172916238597,3.9805850832045437,4.8664170712069215,1.2034802682621688
560f54b3d4ab1e00126fb99f,7,low,0.954,0.9547652994011432,0.703125,1,35,300,thermal,constant,1,1,1,8351,2026-02-22T02:49:18.771Z,1,8351,32.46459583968029,135.89168184317973,304.2380483633055,24.94128082130962,187.17153600780156,287.7323489517507,3.687245684182029,162.60506360823408,5.097455374840245,5.665500130796113,5.718139084785942,3.255835553972706,5.237353972396179,1.3075881327591792
560f54b3d4ab1e00126fb99f,18,medium,0.982,0.9829633323762293,0.1015625,1,39,300,thermal,linear,3,3,1,5731,2026-02-22T02:49:31.590Z,1,5731,36.33666517822927,178.31679286221234,300.4567724809394,52.375820717957396,214.12557085114125,322.5339491738996,4.062820497625559,139.51438010205788,4.945309833017289,5.779304051785327,5.7056366628561115,3.9773578478794227,5.371221908106992,1.4043357564025858
560f54b3d4ab1e00126fb99f,41,high,0.956,0.9553896303059948,0.59375,1,30,200,diverging,thermal,0,0,1,2854,2026-02-22T02:49:34.464Z,1,2854,32.45107970813402,172.0403292364764,200.78171593554202,127.09754127882101,124.49282028965762,252.41014173182296,4.879486011347053,154.75888070900393,5.048309175040461,5.53500928970582,5.302716256905349,4.852792014954403,4.832248548088001,1.5870871878083443
560f54b3d4ab1e00126fb99f,29,medium,0.982,0.9826997229747407,0.1484375,1,25,200,linear,diverging,3,3,1,21847,2026-02-22T02:49:56.324Z,1,21847,34.753362350304805,175.23527090234077,201.72130849120305,89.64206976095173,77.49988535052118,224.6394986533593,4.288262020790843,152.4492911081484,5.03337016136233,5.418938586982049,5.307382694471926,4.506918451420994,4.363097164284381,1.458210759784843
560f54b3d4ab1e00126fb99f,13,low,0.954,0.9531508721411301,0.5625,1,17,200,linear,constant,2,2,1,6907,2026-02-22T02:50:03.265Z,1,6907,31.75191347562168,116.6442795167885,200.5962589482392,19.398446213299906,72.39335088318684,193.82418621121417,3.2399138888287324,108.2690054279091,4.693812781572795,5.272097542696464,5.301792615609827,3.015458731934682,4.295833344094659,1.1786285002456223
560f54b3d4ab1e00126fb99f,12,low,0.954,0.9540324947581752,0.31640625,1,28,200,constant,thermal,1,1,1,13420,2026-02-22T02:50:16.717Z,1,13420,28.45463825391801,237.56043068525994,228.59286391491145,278.0729620346011,49.47439651318804,285.44972054292515,4.617950212849031,117.35491425206342,4.773687858140296,5.657563025266487,5.432379897721241,5.631473260301709,3.921466207974638,1.5321140514622056
560f54b3d4ab1e00126fb99f,26,medium,0.982,0.9814160033571123,0.25,1,32,300,constant,constant,1,1,1,6080,2026-02-22T02:50:22.822Z,1,6080,26.62940405233536,89.58371603260767,299.8352510747976,24.30943155035257,52.10905259922612,154.1715046020102,3.2301956833225236,138.47258547515827,4.937868062057517,5.044530986523282,5.703566621610934,3.2311771148165715,3.9723473958121263,1.1756337240676664
560f54b3d4ab1e00126fb99f,24,medium,0.982,0.9819063739147701,0.1875,1,5,100,linear,linear,2,2,1,7507,2026-02-22T02:50:30.356Z,1,7507,21.71057890026889,105.25456813700394,123.48085997882784,37.11636626503585,65.69838276139436,117.23620178960367,1.5991730852804729,58.42316569497907,4.084684145205336,4.772684333794932,4.81689567849216,3.6406437506599394,4.200180706171771,0.47572043542570397
560f54b3d4ab1e00126fb99f,46,high,0.956,0.9561580853528799,0.78125,1,20,200,constant,linear,3,3,1,4712,2026-02-22T02:50:35.101Z,1,4712,26.455192697019992,147.72934305793888,235.43537318789427,69.90089109803726,48.76372299600452,98.64980317428015,1.7274467738437655,102.8819047974691,4.643254723144236,4.601662071486558,5.4618611067963965,4.261283001837623,3.907286264683656,0.5524166642286031
560f54b3d4ab1e00126fb99f,4,low,0.954,0.9548330016334677,1.3125,1,16,200,constant,constant,0,0,1,7704,2026-02-22T02:50:42.836Z,1,7704,24.91764780853728,78.63496319607663,200.0237172626099,16.275574603288007,41.41730163928375,121.15087660954092,2.0691777433624807,82.37499706888882,4.423348469080031,4.805256974178538,5.298935761615437,2.849293631230113,3.747556336535357,0.7319724998642649
560f54b3d4ab1e00126fb99f,30,medium,0.982,0.9811975402214468,0.1484375,1,9,100,linear,diverging,0,0,1,8250,2026-02-22T02:50:51.120Z,1,8250,23.586200888559,129.73871008379044,104.59155220439969,63.69534192297375,87.22355851147695,151.02284968798196,2.641182423701177,89.32502916820073,4.503414599958653,5.02403083644294,4.651018428894381,4.169689203906956,4.479874030651736,0.9750057381046586
560f54b3d4ab1e00126fb99f,9000,medium,0.8,0.8499736243421628,6,0,47,300,thermal,thermal,1,1,1,1949,2026-02-22T02:50:53.101Z,1,1949,37.459881391131205,199.8038177415943,300.9348368877921,143.61039971295912,226.50516918094922,360.90480778591524,3.839889267902964,150.70052526257686,5.021908348857239,5.891381215327862,5.707225995220591,4.974043227698388,5.427172959807374,1.348044386302425
560f54b3d4ab1e00126fb99f,16,low,0.954,0.9538955813613624,5.859375,1,12,100,constant,thermal,1,1,1,15731,2026-02-22T02:51:08.860Z,1,15731,24.867303627035785,231.3576636720933,192.32315246214824,277.4787849650425,43.54205812664932,277.4598454334222,4.711114250382047,29.616773748087304,3.4215480204747903,5.629273867404573,5.259696866034276,5.629341880397725,3.7964338692629735,1.5520448417335233
560f54b3d4ab1e00126fb99f,10,low,0.954,0.9547619656566234,3.140625,1,27,200,thermal,diverging,3,0,0,17968,2026-02-22T02:51:26.862Z,0,17968,35.90157232786049,184.755030287204,201.96771045700197,99.61735703854978,218.05670834158,288.2422119584433,3.775115509612621,157.89414953810356,5.068238254350715,5.667264440762101,5.308602841516329,4.611324777957608,5.389330638495752,1.3310764041549632
560f54b3d4ab1e00126fb99f,27,medium,0.982,0.9816052861229,0.1796875,1,10,100,diverging,diverging,0,0,1,13990,2026-02-22T02:51:40.885Z,1,13990,24.491865887883883,167.10248159964323,107.51111539623955,101.67893631757951,143.72482376964768,202.65680673437566,2.5292679844339894,82.567618786634,4.425656109968934,5.316436257225407,4.678523945331332,4.631606996751576,4.974834172273172,0.9318758443895268
560f54b3d4ab1e00126fb99f,20,medium,0.982,0.9827169195684741,0.1875,1,21,200,linear,linear,0,0,1,8670,2026-02-22T02:51:49.569Z,1,8670,32.15088610251676,129.22769470621924,201.27712152285235,37.02195701099816,66.98077192483011,180.34406637163812,2.8740948322648503,106.93743709971204,4.681551773159416,5.200396145985676,5.305179376626509,3.638163808933852,4.219224899378995,1.0592111010821124
560f54b3d4ab1e00126fb99f,23,medium,0.982,0.9820164766576978,0.265625,1,24,200,constant,diverging,2,2,1,6339,2026-02-22T02:51:55.944Z,1,6339,29.78747331926162,192.378677575689,212.46600658581664,139.56048181186952,55.72174602179051,155.8539146732451,2.636290500537747,79.96462186352115,4.394012292144876,5.05531489239502,5.359252559359679,4.945637871675112,4.038157664926922,0.9731588482294592
560f54b3d4ab1e00126fb99f,25,medium,0.982,0.9818009015016169,0.359375,1,13,100,linear,thermal,2,2,1,8122,2026-02-22T02:52:04.101Z,1,8122,23.223091351102646,136.37086027448385,110.7844659517889,115.01362985266535,72.43338617775635,162.0032974605182,2.5135765520232574,90.21979990928637,4.513271977785055,5.093770430421272,4.7084888119734565,4.753707682933803,4.296378684764391,0.9256771619922172
560f54b3d4ab1e00126fb99f,11,low,0.954,0.9544779974762507,0.5625,1,2,100,diverging,constant,2,0,0,24603,2026-02-22T02:52:28.735Z,0,24603,20.310783717353576,106.53987935316164,112.26716036767546,21.50235043437614,165.33786820608148,199.250621791949,3.1496626811452675,61.64558291732101,4.137493174743553,5.299569691022045,4.721771727222967,3.1136197675044675,5.1140210704757765,1.1504652754279938
560f54b3d4ab1e00126fb99f,32,medium,0.982,0.9817418201358791,0.140625,1,29,200,linear,thermal,3,3,1,6705,2026-02-22T02:52:35.471Z,1,6705,34.74760811980196,188.65443904199046,203.01722575293925,143.07013019902715,82.14913709363398,263.1834582941921,4.646281805533995,164.0491186293232,5.106243118262667,5.576643779583788,5.313783279135265,4.970300196293575,4.42063582787774,1.5382172338411138
560f54b3d4ab1e00126fb99f,21,medium,0.982,0.9819615982394505,0.2109375,1,11,100,thermal,diverging,3,3,1,4758,2026-02-22T02:52:40.264Z,1,4758,25.086982096986876,169.24002113782078,115.39717114234278,99.80060560466202,238.37287642880312,271.98277808149055,3.25932546226008,93.38257237446255,4.547356441430765,5.6094087092445,4.749246037387819,4.613144363601979,5.478022488579855,1.1845836829759717
560f54b3d4ab1e00126fb99f,1,low,0.954,0.9545981230171212,1.3125,1,40,300,constant,diverging,0,0,1,2549,2026-02-22T02:52:42.838Z,1,2549,36.3352938985642,210.72720542263636,301.24763548074145,139.51199971331982,53.62984030420117,227.28610166859565,3.800856841341524,180.10097156383642,5.199054729667006,5.4305996741907245,5.7082645334763065,4.945292892339053,4.000580259178041,1.3378540565945856
560f54b3d4ab1e00126fb99f,9,low,0.954,0.9542870455416842,0.984375,1,1,100,linear,constant,2,2,1,3544,2026-02-22T02:52:46.418Z,1,3544,20.58662264927231,82.17163361459026,101.54967791222683,20.834200092538367,77.56067838632953,123.17637697676385,1.7591420231361914,78.59597913311623,4.37696357817143,4.821702949933453,4.621532371473436,3.0834775520800033,4.3638712992727955,0.5704946963734504
560f54b3d4ab1e00126fb99f,35,high,0.956,0.9558301302783567,0.71875,1,37,300,linear,linear,0,0,1,3717,2026-02-22T02:52:50.172Z,1,3717,35.12135349611994,142.6003843022554,301.97912894312304,32.9038257617787,59.4042428674047,243.55048264367326,4.49199327482781,154.2760391266058,5.045204430592388,5.499421760582574,5.710688999422533,3.523527862348589,4.101059348622709,1.5045202486646354
560f54b3d4ab1e00126fb99f,9001,medium,0.8,0.8399758203752686,6,0,47,300,thermal,thermal,2,2,1,2279,2026-02-22T02:52:52.485Z,1,2279,37.459881391131205,199.8038177415943,300.9348368877921,143.61039971295912,226.50516918094922,360.90480778591524,3.839889267902964,150.70052526257686,5.021908348857239,5.891381215327862,5.707225995220591,4.974043227698388,5.427172959807374,1.348044386302425
560f54b3d4ab1e00126fb99f,17,medium,0.982,0.9822182606573706,0.328125,1,0,100,constant,constant,3,3,1,7865,2026-02-22T02:53:00.381Z,1,7865,19.98469022395962,67.4473472898995,99.88699237790625,19.192668444667945,37.105985006453025,95.73413933263282,1.4490018105579767,58.748398408916984,4.09014238558068,4.571966383924724,4.605040101306509,3.005319590241724,3.6403713565793625,0.3777525104980532
560f54b3d4ab1e00126fb99f,6,low,0.954,0.9539980755453146,0.375,1,19,200,thermal,constant,0,0,1,3365,2026-02-22T02:53:03.782Z,1,3365,30.947616693157077,123.83804483599641,202.31423158889248,24.486078900038535,218.43471994800797,271.2373869265834,4.341072919586758,145.5850732092197,4.987605964413303,5.606674431728217,5.310316249115755,3.238132377604119,5.391054784856125,1.4704224628687947
560f54b3d4ab1e00126fb99f,15,low,0.954,0.9546383334524066,1.125,1,4,100,constant,linear,0,0,1,24523,2026-02-22T02:53:28.336Z,1,24523,22.65460623824759,143.41906962913907,263.2115726934799,69.82494432104548,50.71850330964443,74.854309076582,1.0221014844987955,84.05572125847057,4.443306585932365,4.328814514682955,5.573338018037254,4.260211259567955,3.945815615156328,0.03159699991716832
560f54b3d4ab1e00126fb99f,36,high,0.956,0.955148678685334,0.75,1,34,300,diverging,constant,2,2,1,3944,2026-02-22T02:53:32.292Z,1,3944,35.732347824310246,158.8317556339141,299.95533384807493,20.867094584207436,135.25067369596553,305.59367151352336,4.942906713055899,232.14792492172444,5.45167312302911,5.7255233253686,5.703966903808349,3.0849829764901857,4.914496378088675,1.5999746189962447
560f54b3d4ab1e00126fb99f,39,high,0.956,0.9560291866300459,0.90625,1,42,300,diverging,diverging,2,2,1,1741,2026-02-22T02:53:34.064Z,1,1741,36.52757771166708,173.92073772312722,301.9647171932499,70.02192629361686,114.8137609294675,282.25835309778904,4.705631158620732,216.36328051931008,5.381570057566356,5.646359389668484,5.71064128975879,4.262988650402772,4.7519833916665455,1.550882768976295
560f54b3d4ab1e00126fb99f,43,high,0.956,0.9552781087132102,0.1328125,1,44,300,constant,thermal,1,1,1,3419,2026-02-22T02:53:37.521Z,1,3419,30.547508680012825,237.0733830529644,324.86633514028597,278.0903897537597,51.77983737614386,287.0184852418132,5.492894592770048,148.11493539252243,5.004717387059298,5.6630246629435925,5.78372159278079,5.6315357069639935,3.9661292499060483,1.7052742433911823
560f54b3d4ab1e00126fb99f,37,high,0.956,0.9558486708897627,0.3125,1,22,200,diverging,linear,2,2,1,5681,2026-02-22T02:53:43.243Z,1,5681,31.599458726245334,162.6024310734111,204.95888747332756,52.73948472377908,132.48735180299894,233.62320003422536,2.7728614141192214,142.37406414745394,4.965457048121895,5.457980823206389,5.323297193855764,3.984148014823161,4.894006730303201,1.0234796840056672
560f54b3d4ab1e00126fb99f,47,high,0.956,0.9560725848559892,0.5625,1,7,100,thermal,linear,3,3,1,3807,2026-02-22T02:53:47.076Z,1,3807,22.072426976070467,134.42597654341282,109.16202855394599,47.796717645455765,223.048560254293,239.84090102133817,3.295928434808732,100.51192891901722,4.620176317871904,5.484136553750759,4.693748929095293,3.887663049233343,5.411862815209688,1.1957173521012319
560f54b3d4ab1e00126fb99f,34,high,0.956,0.9550032063812905,0.875,1,15,100,thermal,thermal,1,1,1,2020,2026-02-22T02:53:49.124Z,1,2020,21.787120120344838,157.7368536546737,123.62153321129941,138.88136154595372,238.41189737500133,287.91707554462005,4.6837529090298125,121.41446346952533,4.807412528697919,5.666139711106705,4.8180333403306035,4.940794645819191,5.478185488526468,1.5462324562967869
560f54b3d4ab1e00126fb99f,14,low,0.954,0.9543916623983125,8.625,1,36,300,constant,linear,0,0,1,4383,2026-02-22T02:53:53.535Z,1,4383,32.76954435286877,157.2860921800967,302.52851321332156,70.07086157346046,54.01345907712653,146.618245280254,2.857042750193841,118.06492021215956,4.77966889235566,4.994629517536764,5.712506024322011,4.263677429650653,4.007577865788951,1.053281097914528
560f54b3d4ab1e00126fb99f,48,high,0.956,0.9557929891377173,0.109375,1,3,100,thermal,constant,0,0,1,3854,2026-02-22T02:53:57.416Z,1,3854,18.199582813426808,102.62058557188318,116.36024572184083,23.52721783354393,250.42525048066886,264.4418372666389,3.612927585936114,78.61462816750283,4.377197846915053,5.581395748007386,4.757549976331536,3.199783432903778,5.527145730574132,1.2872824243922176
560f54b3d4ab1e00126fb99f,5,low,0.954,0.9547277982319181,0.5390625,1,26,200,diverging,diverging,1,1,1,17716,2026-02-22T02:54:15.158Z,1,17716,34.635073916681705,191.42916194832205,203.79592269840802,99.82693601447288,147.72683559637574,268.69232274868233,3.975921769635415,144.55827752530587,4.980576539239661,5.597281763847613,5.317609680805723,4.613405542305533,5.00211130521583,1.3827685953148676
560f54b3d4ab1e00126fb99f,9002,medium,0.8,0.8434392873821766,7,0,47,300,thermal,thermal,1,1,1,2786,2026-02-22T02:54:17.984Z,1,2786,37.459881391131205,199.8038177415943,300.9348368877921,143.61039971295912,226.50516918094922,360.90480778591524,3.839889267902964,150.70052526257686,5.021908348857239,5.891381215327862,5.707225995220591,4.974043227698388,5.427172959807374,1.348044386302425
560f54b3d4ab1e00126fb99f,19,medium,0.982,0.9814807199280754,0.140625,1,18,200,diverging,constant,2,2,1,34541,2026-02-22T02:54:52.561Z,1,34541,30.73424507434397,134.8670808956869,199.58431780292725,22.274980805381716,146.20141239809757,245.09267084872005,5.1002730698998295,170.88190081988824,5.146807617839642,5.505708175761831,5.296737708559692,3.147378998474572,4.991801801344515,1.6312528411243976
560f54b3d4ab1e00126fb99f,28,medium,0.982,0.9816932221759809,0.1484375,1,6,100,diverging,linear,3,3,1,2739,2026-02-22T02:54:55.346Z,1,2739,25.022827748922104,141.50964783164235,123.29283971358615,51.94329204035352,143.84537094778585,183.14773886699817,2.0465867408746914,98.58651120536058,4.601026725754073,5.215738364059232,4.815373084776314,3.969221379231918,4.9756667661471345,0.7210476866827137
560f54b3d4ab1e00126fb99f,31,medium,0.982,0.9826216164027534,0.140625,1,31,200,thermal,thermal,2,2,1,3012,2026-02-22T02:54:58.393Z,1,3012,33.59256209801489,175.98990997552306,205.93890727342225,143.2085754069357,202.75886803459767,291.892463758398,3.3092244182458512,142.79915212417666,4.968417549053824,5.679805523760091,5.328065021215171,4.971260691924088,5.316937275270011,1.19973114667548
560f54b3d4ab1e00126fb99f,38,high,0.956,0.9556131296531417,4,1,23,200,thermal,linear,3,3,1,2743,2026-02-22T02:55:01.152Z,1,2743,29.910164683641945,118.03976999041497,203.58733767897365,27.136322393645926,186.73429819435495,238.4197463968924,3.6323275690621273,126.19191059400984,4.845697052924671,5.478218272583219,5.316586159685397,3.337061353509714,5.235027655692106,1.2926229193427277
560f54b3d4ab1e00126fb99f,42,high,0.956,0.9562803424919532,0.265625,1,45,300,linear,thermal,1,1,1,4387,2026-02-22T02:55:05.552Z,1,4387,37.41351929007537,179.08793207702453,302.48359957850596,115.06543310831299,66.96461177576752,285.0876438911305,4.899081677162415,160.70784252166655,5.085791265850159,5.656298211046294,5.712357601532881,4.754154110593817,4.218987154650946,1.5910868931861089
560f54b3d4ab1e00126fb99f,3,low,0.954,0.9546421967401085,0.3984375,1,8,100,constant,diverging,2,2,1,17040,2026-02-22T02:55:22.608Z,1,17040,23.62762988920177,187.3316219194171,269.495350319676,139.6530668170946,54.49138923848814,142.07418352544263,2.0866755976306424,89.14394936962226,4.50140783003271,4.963363261659576,5.596922132300689,4.946296339298892,4.016227859859491,0.7403530416364276
560f54b3d4ab1e00126fb99f,33,high,0.956,0.9564511848387951,4,1,43,300,thermal,diverging,2,2,1,3017,2026-02-22T02:55:25.640Z,1,3017,36.39532825812249,185.04861278828125,300.8696077078248,85.55160635081367,202.41652205628563,317.0854537328089,3.7212532748650764,139.95826302905454,4.9484638396733445,5.762320069110988,5.707009288580605,4.4607408412514165,5.3152557096974675,1.3167441758441725
560f54b3d4ab1e00126fb99f,2,low,0.954,0.9545527213621717,3.24609375,1,33,300,linear,constant,2,2,1,14399,2026-02-22T02:55:40.049Z,1,14399,37.35658361585906,157.1873142640553,300.1437122136039,21.53387275034956,76.71669725066278,296.7661294848175,5.2637507705557205,170.91303898233193,5.146988761649069,5.696308378001845,5.704594518904353,3.1150196327192647,4.353070128118153,1.662741830567938
560f54b3d4ab1e00126fb99f,40,high,0.956,0.9557214924081356,1,1,47,300,thermal,thermal,1,1,1,4768,2026-02-22T02:55:44.828Z,1,4768,37.459881391131205,199.8038177415943,300.9348368877921,143.61039971295912,226.50516918094922,360.90480778591524,3.839889267902964,150.70052526257686,5.021908348857239,5.891381215327862,5.707225995220591,4.974043227698388,5.427172959807374,1.348044386302425
560f54b3d4ab1e00126fb99f,8,low,0.954,0.9547454365664693,11.625,1,46,300,diverging,thermal,1,1,1,3208,2026-02-22T02:55:48.047Z,1,3208,37.433087649314515,206.05734887554235,302.1391529934475,155.46899707770027,119.52935732174274,322.32539305618525,4.589677579303656,199.02605384845702,5.298447627306021,5.778659224969587,5.711218601318911,5.052857888615532,4.79189335248401,1.5259862095828014
560f54b3d4ab1e00126fb99f,45,high,0.956,0.9562680257305769,7,1,14,100,diverging,thermal,3,3,1,1917,2026-02-22T02:55:49.975Z,1,1917,22.372449473071093,152.67836391241025,118.20283323512426,139.2218051373111,113.45396894728168,198.86949431785814,3.4874784049160454,115.34828993587034,4.756588192054303,5.297664625148005,4.7732477202759505,4.943225491303938,4.740172724235752,1.25204225310414
560f54b3d4ab1e00126fb99f,44,high,0.956,0.9552924258393981,0.6875,1,41,300,linear,diverging,1,1,1,1422,2026-02-22T02:55:51.410Z,1,1422,40.352213699026045,208.34887723823422,299.9851592028541,103.76714239927611,75.52429916444308,309.0091480530216,5.083933940001059,213.75145484049887,5.369481335418827,5.736601806892241,5.70406629838395,4.651740196002698,4.337608326533323,1.6280504082755054
560f54b3d4ab1e00126fb99f,9003,medium,0.8,0.8818044081229874,6,0,47,300,thermal,thermal,0,0,1,1898,2026-02-22T02:55:53.317Z,1,1898,37.459881391131205,199.8038177415943,300.9348368877921,143.61039971295912,226.50516918094922,360.90480778591524,3.839889267902964,150.70052526257686,5.021908348857239,5.891381215327862,5.707225995220591,4.974043227698388,5.427172959807374,1.348044386302425
5711c09d28742b0011c585be,37,high,0.956,0.9562791752401679,1.125,1,26,200,diverging,diverging,2,2,1,2935,2026-02-22T07:18:40.186Z,1,2935,34.635073916681705,191.42916194832205,203.79592269840802,99.82693601447288,147.72683559637574,268.69232274868233,3.975921769635415,144.55827752530587,4.980576539239661,5.597281763847613,5.317609680805723,4.613405542305533,5.00211130521583,1.3827685953148676
5711c09d28742b0011c585be,42,high,0.956,0.9562292222930564,0.5625,1,27,200,thermal,diverging,3,3,1,2682,2026-02-22T07:18:42.883Z,1,2682,35.90157232786049,184.755030287204,201.96771045700197,99.61735703854978,218.05670834158,288.2422119584433,3.775115509612621,157.89414953810356,5.068238254350715,5.667264440762101,5.308602841516329,4.611324777957608,5.389330638495752,1.3310764041549632
5711c09d28742b0011c585be,7,low,0.954,0.9544642552730608,0.328125,1,24,200,constant,diverging,1,1,1,4044,2026-02-22T07:18:46.941Z,1,4044,29.78747331926162,192.378677575689,212.46600658581664,139.56048181186952,55.72174602179051,155.8539146732451,2.636290500537747,79.96462186352115,4.394012292144876,5.05531489239502,5.359252559359679,4.945637871675112,4.038157664926922,0.9731588482294592
5711c09d28742b0011c585be,39,high,0.956,0.9566811230203303,7.5,1,35,300,thermal,constant,3,3,1,2122,2026-02-22T07:18:49.071Z,1,2122,32.46459583968029,135.89168184317973,304.2380483633055,24.94128082130962,187.17153600780156,287.7323489517507,3.687245684182029,162.60506360823408,5.097455374840245,5.665500130796113,5.718139084785942,3.255835553972706,5.237353972396179,1.3075881327591792
5711c09d28742b0011c585be,31,medium,0.982,0.9824662428885029,0.234375,1,7,100,thermal,linear,2,0,0,6717,2026-02-22T07:18:55.796Z,0,6717,22.072426976070467,134.42597654341282,109.16202855394599,47.796717645455765,223.048560254293,239.84090102133817,3.295928434808732,100.51192891901722,4.620176317871904,5.484136553750759,4.693748929095293,3.887663049233343,5.411862815209688,1.1957173521012319
5711c09d28742b0011c585be,45,high,0.956,0.9555714450072793,0.421875,1,17,200,linear,constant,3,3,1,3632,2026-02-22T07:18:59.444Z,1,3632,31.75191347562168,116.6442795167885,200.5962589482392,19.398446213299906,72.39335088318684,193.82418621121417,3.2399138888287324,108.2690054279091,4.693812781572795,5.272097542696464,5.301792615609827,3.015458731934682,4.295833344094659,1.1786285002456223
5711c09d28742b0011c585be,2,low,0.954,0.9544609018652054,0.4921875,1,39,300,thermal,linear,1,1,1,8620,2026-02-22T07:19:08.078Z,1,8620,36.33666517822927,178.31679286221234,300.4567724809394,52.375820717957396,214.12557085114125,322.5339491738996,4.062820497625559,139.51438010205788,4.945309833017289,5.779304051785327,5.7056366628561115,3.9773578478794227,5.371221908106992,1.4043357564025858
5711c09d28742b0011c585be,20,medium,0.982,0.9827861976200407,0.21875,1,34,300,diverging,constant,2,2,1,6411,2026-02-22T07:19:14.518Z,1,6411,35.732347824310246,158.8317556339141,299.95533384807493,20.867094584207436,135.25067369596553,305.59367151352336,4.942906713055899,232.14792492172444,5.45167312302911,5.7255233253686,5.703966903808349,3.0849829764901857,4.914496378088675,1.5999746189962447
5711c09d28742b0011c585be,43,high,0.956,0.9569442926762362,0.15625,1,2,100,diverging,constant,3,3,1,4474,2026-02-22T07:19:19.016Z,1,4474,20.310783717353576,106.53987935316164,112.26716036767546,21.50235043437614,165.33786820608148,199.250621791949,3.1496626811452675,61.64558291732101,4.137493174743553,5.299569691022045,4.721771727222967,3.1136197675044675,5.1140210704757765,1.1504652754279938
5711c09d28742b0011c585be,48,high,0.956,0.9554415553868384,4,1,12,100,constant,thermal,0,0,1,4347,2026-02-22T07:19:23.382Z,1,4347,24.867303627035785,231.3576636720933,192.32315246214824,277.4787849650425,43.54205812664932,277.4598454334222,4.711114250382047,29.616773748087304,3.4215480204747903,5.629273867404573,5.259696866034276,5.629341880397725,3.7964338692629735,1.5520448417335233
5711c09d28742b0011c585be,29,medium,0.982,0.9827962555418855,0.375,1,14,100,diverging,thermal,1,1,1,3478,2026-02-22T07:19:26.880Z,1,3478,22.372449473071093,152.67836391241025,118.20283323512426,139.2218051373111,113.45396894728168,198.86949431785814,3.4874784049160454,115.34828993587034,4.756588192054303,5.297664625148005,4.7732477202759505,4.943225491303938,4.740172724235752,1.25204225310414
5711c09d28742b0011c585be,38,high,0.956,0.9558601138399959,0.5625,1,19,200,thermal,constant,3,3,1,6036,2026-02-22T07:19:32.933Z,1,6036,30.947616693157077,123.83804483599641,202.31423158889248,24.486078900038535,218.43471994800797,271.2373869265834,4.341072919586758,145.5850732092197,4.987605964413303,5.606674431728217,5.310316249115755,3.238132377604119,5.391054784856125,1.4704224628687947
5711c09d28742b0011c585be,9000,medium,0.8,0.8530351591997278,7,0,47,300,thermal,thermal,0,0,1,3363,2026-02-22T07:19:36.314Z,1,3363,37.459881391131205,199.8038177415943,300.9348368877921,143.61039971295912,226.50516918094922,360.90480778591524,3.839889267902964,150.70052526257686,5.021908348857239,5.891381215327862,5.707225995220591,4.974043227698388,5.427172959807374,1.348044386302425
5711c09d28742b0011c585be,3,low,0.954,0.9541022180897991,7.078125,1,18,200,diverging,constant,1,1,1,14034,2026-02-22T07:19:50.368Z,1,14034,30.73424507434397,134.8670808956869,199.58431780292725,22.274980805381716,146.20141239809757,245.09267084872005,5.1002730698998295,170.88190081988824,5.146807617839642,5.505708175761831,5.296737708559692,3.147378998474572,4.991801801344515,1.6312528411243976
5711c09d28742b0011c585be,33,high,0.956,0.9560941366662133,0.875,1,40,300,constant,diverging,1,1,1,3988,2026-02-22T07:19:54.374Z,1,3988,36.3352938985642,210.72720542263636,301.24763548074145,139.51199971331982,53.62984030420117,227.28610166859565,3.800856841341524,180.10097156383642,5.199054729667006,5.4305996741907245,5.7082645334763065,4.945292892339053,4.000580259178041,1.3378540565945856
5711c09d28742b0011c585be,41,high,0.956,0.9551654796855246,6.5,1,1,100,linear,constant,1,1,1,2722,2026-02-22T07:19:57.112Z,1,2722,20.58662264927231,82.17163361459026,101.54967791222683,20.834200092538367,77.56067838632953,123.17637697676385,1.7591420231361914,78.59597913311623,4.37696357817143,4.821702949933453,4.621532371473436,3.0834775520800033,4.3638712992727955,0.5704946963734504
5711c09d28742b0011c585be,46,high,0.956,0.9562127638055479,0.3125,1,36,300,constant,linear,3,3,1,2747,2026-02-22T07:19:59.869Z,1,2747,32.76954435286877,157.2860921800967,302.52851321332156,70.07086157346046,54.01345907712653,146.618245280254,2.857042750193841,118.06492021215956,4.77966889235566,4.994629517536764,5.712506024322011,4.263677429650653,4.007577865788951,1.053281097914528
5711c09d28742b0011c585be,35,high,0.956,0.9563106778724214,1,1,8,100,constant,diverging,1,1,1,3759,2026-02-22T07:20:03.643Z,1,3759,23.62762988920177,187.3316219194171,269.495350319676,139.6530668170946,54.49138923848814,142.07418352544263,2.0866755976306424,89.14394936962226,4.50140783003271,4.963363261659576,5.596922132300689,4.946296339298892,4.016227859859491,0.7403530416364276
5711c09d28742b0011c585be,4,low,0.954,0.9534212691009223,1.5,1,21,200,linear,linear,2,3,0,15674,2026-02-22T07:20:19.335Z,0,15674,32.15088610251676,129.22769470621924,201.27712152285235,37.02195701099816,66.98077192483011,180.34406637163812,2.8740948322648503,106.93743709971204,4.681551773159416,5.200396145985676,5.305179376626509,3.638163808933852,4.219224899378995,1.0592111010821124
5711c09d28742b0011c585be,11,low,0.954,0.953477517715849,0.609375,1,10,100,diverging,diverging,1,1,1,4033,2026-02-22T07:20:23.389Z,1,4033,24.491865887883883,167.10248159964323,107.51111539623955,101.67893631757951,143.72482376964768,202.65680673437566,2.5292679844339894,82.567618786634,4.425656109968934,5.316436257225407,4.678523945331332,4.631606996751576,4.974834172273172,0.9318758443895268
5711c09d28742b0011c585be,12,low,0.954,0.953303697812654,0.4453125,1,6,100,diverging,linear,3,3,1,4639,2026-02-22T07:20:28.043Z,1,4639,25.022827748922104,141.50964783164235,123.29283971358615,51.94329204035352,143.84537094778585,183.14773886699817,2.0465867408746914,98.58651120536058,4.601026725754073,5.215738364059232,4.815373084776314,3.969221379231918,4.9756667661471345,0.7210476866827137
5711c09d28742b0011c585be,32,medium,0.982,0.9818983766930993,0.171875,1,3,100,thermal,constant,3,3,1,2222,2026-02-22T07:20:30.284Z,1,2222,18.199582813426808,102.62058557188318,116.36024572184083,23.52721783354393,250.42525048066886,264.4418372666389,3.612927585936114,78.61462816750283,4.377197846915053,5.581395748007386,4.757549976331536,3.199783432903778,5.527145730574132,1.2872824243922176
5711c09d28742b0011c585be,9,low,0.954,0.9539079174447345,9.3984375,1,13,100,linear,thermal,1,0,0,15386,2026-02-22T07:20:45.686Z,0,15386,23.223091351102646,136.37086027448385,110.7844659517889,115.01362985266535,72.43338617775635,162.0032974605182,2.5135765520232574,90.21979990928637,4.513271977785055,5.093770430421272,4.7084888119734565,4.753707682933803,4.296378684764391,0.9256771619922172
5711c09d28742b0011c585be,13,low,0.954,0.9544728602150139,0.6328125,1,25,200,linear,diverging,3,2,0,10710,2026-02-22T07:20:56.413Z,0,10710,34.753362350304805,175.23527090234077,201.72130849120305,89.64206976095173,77.49988535052118,224.6394986533593,4.288262020790843,152.4492911081484,5.03337016136233,5.418938586982049,5.307382694471926,4.506918451420994,4.363097164284381,1.458210759784843
5711c09d28742b0011c585be,28,medium,0.982,0.9816613871869202,0.25,1,41,300,linear,diverging,0,0,1,3195,2026-02-22T07:20:59.624Z,1,3195,40.352213699026045,208.34887723823422,299.9851592028541,103.76714239927611,75.52429916444308,309.0091480530216,5.083933940001059,213.75145484049887,5.369481335418827,5.736601806892241,5.70406629838395,4.651740196002698,4.337608326533323,1.6280504082755054
5711c09d28742b0011c585be,9001,medium,0.8,0.8519862788832212,7.75,0,47,300,thermal,thermal,3,3,1,4822,2026-02-22T07:21:04.463Z,1,4822,37.459881391131205,199.8038177415943,300.9348368877921,143.61039971295912,226.50516918094922,360.90480778591524,3.839889267902964,150.70052526257686,5.021908348857239,5.891381215327862,5.707225995220591,4.974043227698388,5.427172959807374,1.348044386302425
5711c09d28742b0011c585be,25,medium,0.982,0.9822069180465646,0.234375,1,30,200,diverging,thermal,1,1,1,2519,2026-02-22T07:21:07.001Z,1,2519,32.45107970813402,172.0403292364764,200.78171593554202,127.09754127882101,124.49282028965762,252.41014173182296,4.879486011347053,154.75888070900393,5.048309175040461,5.53500928970582,5.302716256905349,4.852792014954403,4.832248548088001,1.5870871878083443
5711c09d28742b0011c585be,8,low,0.954,0.9549058846868462,0.9375,1,5,100,linear,linear,3,3,1,11569,2026-02-22T07:21:18.587Z,1,11569,21.71057890026889,105.25456813700394,123.48085997882784,37.11636626503585,65.69838276139436,117.23620178960367,1.5991730852804729,58.42316569497907,4.084684145205336,4.772684333794932,4.81689567849216,3.6406437506599394,4.200180706171771,0.47572043542570397
5711c09d28742b0011c585be,23,medium,0.982,0.9819273309003951,0.34375,1,42,300,diverging,diverging,3,3,1,5025,2026-02-22T07:21:23.629Z,1,5025,36.52757771166708,173.92073772312722,301.9647171932499,70.02192629361686,114.8137609294675,282.25835309778904,4.705631158620732,216.36328051931008,5.381570057566356,5.646359389668484,5.71064128975879,4.262988650402772,4.7519833916665455,1.550882768976295
5711c09d28742b0011c585be,27,medium,0.982,0.9825125204022909,0.25,1,44,300,constant,thermal,2,2,1,8240,2026-02-22T07:21:31.875Z,1,8240,30.547508680012825,237.0733830529644,324.86633514028597,278.0903897537597,51.77983737614386,287.0184852418132,5.492894592770048,148.11493539252243,5.004717387059298,5.6630246629435925,5.78372159278079,5.6315357069639935,3.9661292499060483,1.7052742433911823
5711c09d28742b0011c585be,40,high,0.956,0.9557378269915654,1.125,1,46,300,diverging,thermal,3,3,1,2780,2026-02-22T07:21:34.672Z,1,2780,37.433087649314515,206.05734887554235,302.1391529934475,155.46899707770027,119.52935732174274,322.32539305618525,4.589677579303656,199.02605384845702,5.298447627306021,5.778659224969587,5.711218601318911,5.052857888615532,4.79189335248401,1.5259862095828014
5711c09d28742b0011c585be,34,high,0.956,0.9559753777105656,0.375,1,33,300,linear,constant,2,2,1,4427,2026-02-22T07:21:39.121Z,1,4427,37.35658361585906,157.1873142640553,300.1437122136039,21.53387275034956,76.71669725066278,296.7661294848175,5.2637507705557205,170.91303898233193,5.146988761649069,5.696308378001845,5.704594518904353,3.1150196327192647,4.353070128118153,1.662741830567938
5711c09d28742b0011c585be,16,low,0.954,0.9536415460418975,0.6796875,1,29,200,linear,thermal,3,3,1,4579,2026-02-22T07:21:43.718Z,1,4579,34.74760811980196,188.65443904199046,203.01722575293925,143.07013019902715,82.14913709363398,263.1834582941921,4.646281805533995,164.0491186293232,5.106243118262667,5.576643779583788,5.313783279135265,4.970300196293575,4.42063582787774,1.5382172338411138
5711c09d28742b0011c585be,22,medium,0.982,0.9819842575328608,2,1,23,200,thermal,linear,2,2,1,4227,2026-02-22T07:21:47.966Z,1,4227,29.910164683641945,118.03976999041497,203.58733767897365,27.136322393645926,186.73429819435495,238.4197463968924,3.6323275690621273,126.19191059400984,4.845697052924671,5.478218272583219,5.316586159685397,3.337061353509714,5.235027655692106,1.2926229193427277
5711c09d28742b0011c585be,17,medium,0.982,0.982723058716586,0.40625,1,43,300,thermal,diverging,3,3,1,8259,2026-02-22T07:21:56.243Z,1,8259,36.39532825812249,185.04861278828125,300.8696077078248,85.55160635081367,202.41652205628563,317.0854537328089,3.7212532748650764,139.95826302905454,4.9484638396733445,5.762320069110988,5.707009288580605,4.4607408412514165,5.3152557096974675,1.3167441758441725
5711c09d28742b0011c585be,15,low,0.954,0.9531517401725464,1.03125,1,31,200,thermal,thermal,2,2,1,8105,2026-02-22T07:22:04.366Z,1,8105,33.59256209801489,175.98990997552306,205.93890727342225,143.2085754069357,202.75886803459767,291.892463758398,3.3092244182458512,142.79915212417666,4.968417549053824,5.679805523760091,5.328065021215171,4.971260691924088,5.316937275270011,1.19973114667548
5711c09d28742b0011c585be,26,medium,0.982,0.9814584562393985,0.1640625,1,45,300,linear,thermal,1,1,1,3830,2026-02-22T07:22:08.212Z,1,3830,37.41351929007537,179.08793207702453,302.48359957850596,115.06543310831299,66.96461177576752,285.0876438911305,4.899081677162415,160.70784252166655,5.085791265850159,5.656298211046294,5.712357601532881,4.754154110593817,4.218987154650946,1.5910868931861089
5711c09d28742b0011c585be,1,low,0.954,0.9536872436423957,0.5390625,1,0,100,constant,constant,0,0,1,7063,2026-02-22T07:22:15.294Z,1,7063,19.98469022395962,67.4473472898995,99.88699237790625,19.192668444667945,37.105985006453025,95.73413933263282,1.4490018105579767,58.748398408916984,4.09014238558068,4.571966383924724,4.605040101306509,3.005319590241724,3.6403713565793625,0.3777525104980532
5711c09d28742b0011c585be,9002,medium,0.8,0.8441976603115294,7,0,47,300,thermal,thermal,0,0,1,2930,2026-02-22T07:22:18.242Z,1,2930,37.459881391131205,199.8038177415943,300.9348368877921,143.61039971295912,226.50516918094922,360.90480778591524,3.839889267902964,150.70052526257686,5.021908348857239,5.891381215327862,5.707225995220591,4.974043227698388,5.427172959807374,1.348044386302425
5711c09d28742b0011c585be,36,high,0.956,0.9553407448147343,0.3125,1,16,200,constant,constant,1,1,1,3144,2026-02-22T07:22:21.405Z,1,3144,24.91764780853728,78.63496319607663,200.0237172626099,16.275574603288007,41.41730163928375,121.15087660954092,2.0691777433624807,82.37499706888882,4.423348469080031,4.805256974178538,5.298935761615437,2.849293631230113,3.747556336535357,0.7319724998642649
5711c09d28742b0011c585be,24,medium,0.982,0.9812099032842756,0.171875,1,47,300,thermal,thermal,3,3,1,7028,2026-02-22T07:22:28.451Z,1,7028,37.459881391131205,199.8038177415943,300.9348368877921,143.61039971295912,226.50516918094922,360.90480778591524,3.839889267902964,150.70052526257686,5.021908348857239,5.891381215327862,5.707225995220591,4.974043227698388,5.427172959807374,1.348044386302425
5711c09d28742b0011c585be,10,low,0.954,0.9545155050742342,10.40625,1,32,300,constant,constant,0,2,0,11951,2026-02-22T07:22:40.419Z,0,11951,26.62940405233536,89.58371603260767,299.8352510747976,24.30943155035257,52.10905259922612,154.1715046020102,3.2301956833225236,138.47258547515827,4.937868062057517,5.044530986523282,5.703566621610934,3.2311771148165715,3.9723473958121263,1.1756337240676664
5711c09d28742b0011c585be,5,low,0.954,0.9531947041081563,9,1,11,100,thermal,diverging,3,3,1,27412,2026-02-22T07:23:07.838Z,1,27412,25.086982096986876,169.24002113782078,115.39717114234278,99.80060560466202,238.37287642880312,271.98277808149055,3.25932546226008,93.38257237446255,4.547356441430765,5.6094087092445,4.749246037387819,4.613144363601979,5.478022488579855,1.1845836829759717
5711c09d28742b0011c585be,19,medium,0.982,0.9819270623554319,0.21875,1,37,300,linear,linear,1,1,1,3255,2026-02-22T07:23:11.100Z,1,3255,35.12135349611994,142.6003843022554,301.97912894312304,32.9038257617787,59.4042428674047,243.55048264367326,4.49199327482781,154.2760391266058,5.045204430592388,5.499421760582574,5.710688999422533,3.523527862348589,4.101059348622709,1.5045202486646354
5711c09d28742b0011c585be,30,medium,0.982,0.9826964417186944,0.28125,1,20,200,constant,linear,2,2,1,9121,2026-02-22T07:23:20.226Z,1,9121,26.455192697019992,147.72934305793888,235.43537318789427,69.90089109803726,48.76372299600452,98.64980317428015,1.7274467738437655,102.8819047974691,4.643254723144236,4.601662071486558,5.4618611067963965,4.261283001837623,3.907286264683656,0.5524166642286031
5711c09d28742b0011c585be,18,medium,0.982,0.9814304629807066,0.28125,1,15,100,thermal,thermal,3,3,1,7718,2026-02-22T07:23:27.948Z,1,7718,21.787120120344838,157.7368536546737,123.62153321129941,138.88136154595372,238.41189737500133,287.91707554462005,4.6837529090298125,121.41446346952533,4.807412528697919,5.666139711106705,4.8180333403306035,4.940794645819191,5.478185488526468,1.5462324562967869
5711c09d28742b0011c585be,6,low,0.954,0.9543304747118097,0.984375,1,38,300,diverging,linear,3,1,0,21142,2026-02-22T07:23:49.095Z,0,21142,38.70242322962777,185.79386115733928,300.3174226083436,52.54835530720002,128.85482182232064,301.1629633967739,3.321691950707361,243.60403904503056,5.499640735974588,5.710966485732247,5.705172916238597,3.9805850832045437,4.8664170712069215,1.2034802682621688
5711c09d28742b0011c585be,44,high,0.956,0.9554895059528868,0.6875,1,28,200,constant,thermal,3,3,1,1983,2026-02-22T07:23:51.085Z,1,1983,28.45463825391801,237.56043068525994,228.59286391491145,278.0729620346011,49.47439651318804,285.44972054292515,4.617950212849031,117.35491425206342,4.773687858140296,5.657563025266487,5.432379897721241,5.631473260301709,3.921466207974638,1.5321140514622056
5711c09d28742b0011c585be,14,low,0.954,0.9540110022789775,1.2890625,1,9,100,linear,diverging,0,3,0,13636,2026-02-22T07:24:04.730Z,0,13636,23.586200888559,129.73871008379044,104.59155220439969,63.69534192297375,87.22355851147695,151.02284968798196,2.641182423701177,89.32502916820073,4.503414599958653,5.02403083644294,4.651018428894381,4.169689203906956,4.479874030651736,0.9750057381046586
5711c09d28742b0011c585be,21,medium,0.982,0.9818072138356103,0.25,1,22,200,diverging,linear,3,3,1,4790,2026-02-22T07:24:09.524Z,1,4790,31.599458726245334,162.6024310734111,204.95888747332756,52.73948472377908,132.48735180299894,233.62320003422536,2.7728614141192214,142.37406414745394,4.965457048121895,5.457980823206389,5.323297193855764,3.984148014823161,4.894006730303201,1.0234796840056672
5711c09d28742b0011c585be,47,high,0.956,0.9552982526971213,0.296875,1,4,100,constant,linear,0,0,1,3655,2026-02-22T07:24:13.184Z,1,3655,22.65460623824759,143.41906962913907,263.2115726934799,69.82494432104548,50.71850330964443,74.854309076582,1.0221014844987955,84.05572125847057,4.443306585932365,4.328814514682955,5.573338018037254,4.260211259567955,3.945815615156328,0.03159699991716832
5711c09d28742b0011c585be,9003,medium,0.8,0.8610402020364729,4,0,47,300,thermal,thermal,2,2,1,4182,2026-02-22T07:24:17.372Z,1,4182,37.459881391131205,199.8038177415943,300.9348368877921,143.61039971295912,226.50516918094922,360.90480778591524,3.839889267902964,150.70052526257686,5.021908348857239,5.891381215327862,5.707225995220591,4.974043227698388,5.427172959807374,1.348044386302425
58a50aebbb9e0f0001aca2a7,41,high,0.956,0.9567813444229659,0.53125,1,1,100,linear,constant,1,1,1,18281,2026-02-22T07:09:18.880Z,1,18281,20.58662264927231,82.17163361459026,101.54967791222683,20.834200092538367,77.56067838632953,123.17637697676385,1.7591420231361914,78.59597913311623,4.37696357817143,4.821702949933453,4.621532371473436,3.0834775520800033,4.3638712992727955,0.5704946963734504
58a50aebbb9e0f0001aca2a7,37,high,0.956,0.9560189777028648,0.171875,1,26,200,diverging,diverging,3,3,1,4821,2026-02-22T07:09:23.740Z,1,4821,34.635073916681705,191.42916194832205,203.79592269840802,99.82693601447288,147.72683559637574,268.69232274868233,3.975921769635415,144.55827752530587,4.980576539239661,5.597281763847613,5.317609680805723,4.613405542305533,5.00211130521583,1.3827685953148676
58a50aebbb9e0f0001aca2a7,36,high,0.956,0.9553137751008945,0.53125,1,16,200,constant,constant,3,3,1,2321,2026-02-22T07:09:26.082Z,1,2321,24.91764780853728,78.63496319607663,200.0237172626099,16.275574603288007,41.41730163928375,121.15087660954092,2.0691777433624807,82.37499706888882,4.423348469080031,4.805256974178538,5.298935761615437,2.849293631230113,3.747556336535357,0.7319724998642649
58a50aebbb9e0f0001aca2a7,31,medium,0.982,0.9817504368881271,0.1171875,1,7,100,thermal,linear,1,1,1,12600,2026-02-22T07:09:38.703Z,1,12600,22.072426976070467,134.42597654341282,109.16202855394599,47.796717645455765,223.048560254293,239.84090102133817,3.295928434808732,100.51192891901722,4.620176317871904,5.484136553750759,4.693748929095293,3.887663049233343,5.411862815209688,1.1957173521012319
58a50aebbb9e0f0001aca2a7,21,medium,0.982,0.9824251492825237,0.65625,1,22,200,diverging,linear,0,1,0,6996,2026-02-22T07:09:45.751Z,0,6996,31.599458726245334,162.6024310734111,204.95888747332756,52.73948472377908,132.48735180299894,233.62320003422536,2.7728614141192214,142.37406414745394,4.965457048121895,5.457980823206389,5.323297193855764,3.984148014823161,4.894006730303201,1.0234796840056672
58a50aebbb9e0f0001aca2a7,2,low,0.954,0.9545728880181745,10.5,1,39,300,thermal,linear,3,1,0,9009,2026-02-22T07:09:54.806Z,0,9009,36.33666517822927,178.31679286221234,300.4567724809394,52.375820717957396,214.12557085114125,322.5339491738996,4.062820497625559,139.51438010205788,4.945309833017289,5.779304051785327,5.7056366628561115,3.9773578478794227,5.371221908106992,1.4043357564025858
58a50aebbb9e0f0001aca2a7,34,high,0.956,0.9553591451484632,0.8125,1,33,300,linear,constant,0,0,1,2452,2026-02-22T07:09:57.310Z,1,2452,37.35658361585906,157.1873142640553,300.1437122136039,21.53387275034956,76.71669725066278,296.7661294848175,5.2637507705557205,170.91303898233193,5.146988761649069,5.696308378001845,5.704594518904353,3.1150196327192647,4.353070128118153,1.662741830567938
58a50aebbb9e0f0001aca2a7,35,high,0.956,0.9554459087435134,0.4375,1,8,100,constant,diverging,3,3,1,2815,2026-02-22T07:10:00.141Z,1,2815,23.62762988920177,187.3316219194171,269.495350319676,139.6530668170946,54.49138923848814,142.07418352544263,2.0866755976306424,89.14394936962226,4.50140783003271,4.963363261659576,5.596922132300689,4.946296339298892,4.016227859859491,0.7403530416364276
58a50aebbb9e0f0001aca2a7,16,low,0.954,0.9541802783871988,0.80859375,1,29,200,linear,thermal,1,1,1,7497,2026-02-22T07:10:07.683Z,1,7497,34.74760811980196,188.65443904199046,203.01722575293925,143.07013019902715,82.14913709363398,263.1834582941921,4.646281805533995,164.0491186293232,5.106243118262667,5.576643779583788,5.313783279135265,4.970300196293575,4.42063582787774,1.5382172338411138
58a50aebbb9e0f0001aca2a7,45,high,0.956,0.956399480992186,4,1,17,200,linear,constant,0,0,1,2911,2026-02-22T07:10:10.615Z,1,2911,31.75191347562168,116.6442795167885,200.5962589482392,19.398446213299906,72.39335088318684,193.82418621121417,3.2399138888287324,108.2690054279091,4.693812781572795,5.272097542696464,5.301792615609827,3.015458731934682,4.295833344094659,1.1786285002456223
58a50aebbb9e0f0001aca2a7,10,low,0.954,0.9546446114681534,6,1,32,300,constant,constant,0,1,0,15461,2026-02-22T07:10:26.126Z,0,15461,26.62940405233536,89.58371603260767,299.8352510747976,24.30943155035257,52.10905259922612,154.1715046020102,3.2301956833225236,138.47258547515827,4.937868062057517,5.044530986523282,5.703566621610934,3.2311771148165715,3.9723473958121263,1.1756337240676664
58a50aebbb9e0f0001aca2a7,20,medium,0.982,0.9818476541682177,0.375,1,34,300,diverging,constant,1,1,1,10126,2026-02-22T07:10:36.298Z,1,10126,35.732347824310246,158.8317556339141,299.95533384807493,20.867094584207436,135.25067369596553,305.59367151352336,4.942906713055899,232.14792492172444,5.45167312302911,5.7255233253686,5.703966903808349,3.0849829764901857,4.914496378088675,1.5999746189962447
58a50aebbb9e0f0001aca2a7,9000,medium,0.8,0.9148088269162085,4,0,47,300,thermal,thermal,1,1,1,5476,2026-02-22T07:10:41.820Z,1,5476,37.459881391131205,199.8038177415943,300.9348368877921,143.61039971295912,226.50516918094922,360.90480778591524,3.839889267902964,150.70052526257686,5.021908348857239,5.891381215327862,5.707225995220591,4.974043227698388,5.427172959807374,1.348044386302425
58a50aebbb9e0f0001aca2a7,22,medium,0.982,0.9811804519985698,0.3125,1,23,200,thermal,linear,1,1,1,4567,2026-02-22T07:10:46.424Z,1,4567,29.910164683641945,118.03976999041497,203.58733767897365,27.136322393645926,186.73429819435495,238.4197463968924,3.6323275690621273,126.19191059400984,4.845697052924671,5.478218272583219,5.316586159685397,3.337061353509714,5.235027655692106,1.2926229193427277
58a50aebbb9e0f0001aca2a7,42,high,0.956,0.9562208209271185,4.5,1,27,200,thermal,diverging,1,1,1,1990,2026-02-22T07:10:48.462Z,1,1990,35.90157232786049,184.755030287204,201.96771045700197,99.61735703854978,218.05670834158,288.2422119584433,3.775115509612621,157.89414953810356,5.068238254350715,5.667264440762101,5.308602841516329,4.611324777957608,5.389330638495752,1.3310764041549632
58a50aebbb9e0f0001aca2a7,17,medium,0.982,0.9822913921578851,0.1875,1,43,300,thermal,diverging,3,3,1,10581,2026-02-22T07:10:59.076Z,1,10581,36.39532825812249,185.04861278828125,300.8696077078248,85.55160635081367,202.41652205628563,317.0854537328089,3.7212532748650764,139.95826302905454,4.9484638396733445,5.762320069110988,5.707009288580605,4.4607408412514165,5.3152557096974675,1.3167441758441725
58a50aebbb9e0f0001aca2a7,33,high,0.956,0.9557048182666644,0.1875,1,40,300,constant,diverging,0,0,1,3575,2026-02-22T07:11:02.662Z,1,3575,36.3352938985642,210.72720542263636,301.24763548074145,139.51199971331982,53.62984030420117,227.28610166859565,3.800856841341524,180.10097156383642,5.199054729667006,5.4305996741907245,5.7082645334763065,4.945292892339053,4.000580259178041,1.3378540565945856
58a50aebbb9e0f0001aca2a7,48,high,0.956,0.9567223995520496,0.75,1,12,100,constant,thermal,3,3,1,2856,2026-02-22T07:11:05.546Z,1,2856,24.867303627035785,231.3576636720933,192.32315246214824,277.4787849650425,43.54205812664932,277.4598454334222,4.711114250382047,29.616773748087304,3.4215480204747903,5.629273867404573,5.259696866034276,5.629341880397725,3.7964338692629735,1.5520448417335233
58a50aebbb9e0f0001aca2a7,24,medium,0.982,0.9816217937312597,0.1328125,1,47,300,thermal,thermal,1,0,0,10724,2026-02-22T07:11:16.313Z,0,10724,37.459881391131205,199.8038177415943,300.9348368877921,143.61039971295912,226.50516918094922,360.90480778591524,3.839889267902964,150.70052526257686,5.021908348857239,5.891381215327862,5.707225995220591,4.974043227698388,5.427172959807374,1.348044386302425
58a50aebbb9e0f0001aca2a7,47,high,0.956,0.9560370898616205,0.78125,1,4,100,constant,linear,0,0,1,2048,2026-02-22T07:11:18.399Z,1,2048,22.65460623824759,143.41906962913907,263.2115726934799,69.82494432104548,50.71850330964443,74.854309076582,1.0221014844987955,84.05572125847057,4.443306585932365,4.328814514682955,5.573338018037254,4.260211259567955,3.945815615156328,0.03159699991716832
58a50aebbb9e0f0001aca2a7,32,medium,0.982,0.9819464918100593,0.265625,1,3,100,thermal,constant,0,0,1,10385,2026-02-22T07:11:28.823Z,1,10385,18.199582813426808,102.62058557188318,116.36024572184083,23.52721783354393,250.42525048066886,264.4418372666389,3.612927585936114,78.61462816750283,4.377197846915053,5.581395748007386,4.757549976331536,3.199783432903778,5.527145730574132,1.2872824243922176
58a50aebbb9e0f0001aca2a7,25,medium,0.982,0.9810804604985675,0.15625,1,30,200,diverging,thermal,2,2,1,9706,2026-02-22T07:11:38.564Z,1,9706,32.45107970813402,172.0403292364764,200.78171593554202,127.09754127882101,124.49282028965762,252.41014173182296,4.879486011347053,154.75888070900393,5.048309175040461,5.53500928970582,5.302716256905349,4.852792014954403,4.832248548088001,1.5870871878083443
58a50aebbb9e0f0001aca2a7,13,low,0.954,0.9535419287031008,0.421875,1,25,200,linear,diverging,2,2,1,6113,2026-02-22T07:11:44.693Z,1,6113,34.753362350304805,175.23527090234077,201.72130849120305,89.64206976095173,77.49988535052118,224.6394986533593,4.288262020790843,152.4492911081484,5.03337016136233,5.418938586982049,5.307382694471926,4.506918451420994,4.363097164284381,1.458210759784843
58a50aebbb9e0f0001aca2a7,19,medium,0.982,0.9822341589454078,0.359375,1,37,300,linear,linear,3,3,1,4747,2026-02-22T07:11:49.489Z,1,4747,35.12135349611994,142.6003843022554,301.97912894312304,32.9038257617787,59.4042428674047,243.55048264367326,4.49199327482781,154.2760391266058,5.045204430592388,5.499421760582574,5.710688999422533,3.523527862348589,4.101059348622709,1.5045202486646354
58a50aebbb9e0f0001aca2a7,12,low,0.954,0.9543950881794179,7.453125,1,6,100,diverging,linear,3,2,0,16006,2026-02-22T07:12:05.529Z,0,16006,25.022827748922104,141.50964783164235,123.29283971358615,51.94329204035352,143.84537094778585,183.14773886699817,2.0465867408746914,98.58651120536058,4.601026725754073,5.215738364059232,4.815373084776314,3.969221379231918,4.9756667661471345,0.7210476866827137
58a50aebbb9e0f0001aca2a7,9001,medium,0.8,0.810749794834296,7,0,47,300,thermal,thermal,1,1,1,2445,2026-02-22T07:12:08.004Z,1,2445,37.459881391131205,199.8038177415943,300.9348368877921,143.61039971295912,226.50516918094922,360.90480778591524,3.839889267902964,150.70052526257686,5.021908348857239,5.891381215327862,5.707225995220591,4.974043227698388,5.427172959807374,1.348044386302425
58a50aebbb9e0f0001aca2a7,14,low,0.954,0.9545641018980857,6.609375,1,9,100,linear,diverging,0,0,1,8325,2026-02-22T07:12:16.376Z,1,8325,23.586200888559,129.73871008379044,104.59155220439969,63.69534192297375,87.22355851147695,151.02284968798196,2.641182423701177,89.32502916820073,4.503414599958653,5.02403083644294,4.651018428894381,4.169689203906956,4.479874030651736,0.9750057381046586
58a50aebbb9e0f0001aca2a7,43,high,0.956,0.9557374343622459,0.359375,1,2,100,diverging,constant,1,1,1,2087,2026-02-22T07:12:18.491Z,1,2087,20.310783717353576,106.53987935316164,112.26716036767546,21.50235043437614,165.33786820608148,199.250621791949,3.1496626811452675,61.64558291732101,4.137493174743553,5.299569691022045,4.721771727222967,3.1136197675044675,5.1140210704757765,1.1504652754279938
58a50aebbb9e0f0001aca2a7,30,medium,0.982,0.9813321955654001,0.234375,1,20,200,constant,linear,0,0,1,2052,2026-02-22T07:12:20.589Z,1,2052,26.455192697019992,147.72934305793888,235.43537318789427,69.90089109803726,48.76372299600452,98.64980317428015,1.7274467738437655,102.8819047974691,4.643254723144236,4.601662071486558,5.4618611067963965,4.261283001837623,3.907286264683656,0.5524166642286031
58a50aebbb9e0f0001aca2a7,4,low,0.954,0.95338143015524,1.3125,1,21,200,linear,linear,0,0,1,10770,2026-02-22T07:12:31.387Z,1,10770,32.15088610251676,129.22769470621924,201.27712152285235,37.02195701099816,66.98077192483011,180.34406637163812,2.8740948322648503,106.93743709971204,4.681551773159416,5.200396145985676,5.305179376626509,3.638163808933852,4.219224899378995,1.0592111010821124
58a50aebbb9e0f0001aca2a7,29,medium,0.982,0.9824336732402962,0.34375,1,14,100,diverging,thermal,2,2,1,5012,2026-02-22T07:12:36.434Z,1,5012,22.372449473071093,152.67836391241025,118.20283323512426,139.2218051373111,113.45396894728168,198.86949431785814,3.4874784049160454,115.34828993587034,4.756588192054303,5.297664625148005,4.7732477202759505,4.943225491303938,4.740172724235752,1.25204225310414
58a50aebbb9e0f0001aca2a7,15,low,0.954,0.9545638086827801,0.4921875,1,31,200,thermal,thermal,3,2,0,11431,2026-02-22T07:12:47.899Z,0,11431,33.59256209801489,175.98990997552306,205.93890727342225,143.2085754069357,202.75886803459767,291.892463758398,3.3092244182458512,142.79915212417666,4.968417549053824,5.679805523760091,5.328065021215171,4.971260691924088,5.316937275270011,1.19973114667548
58a50aebbb9e0f0001aca2a7,26,medium,0.982,0.9819901006004,0.125,1,45,300,linear,thermal,1,1,1,22684,2026-02-22T07:13:10.598Z,1,22684,37.41351929007537,179.08793207702453,302.48359957850596,115.06543310831299,66.96461177576752,285.0876438911305,4.899081677162415,160.70784252166655,5.085791265850159,5.656298211046294,5.712357601532881,4.754154110593817,4.218987154650946,1.5910868931861089
58a50aebbb9e0f0001aca2a7,11,low,0.954,0.9540956316982312,0.609375,1,10,100,diverging,diverging,0,0,1,13959,2026-02-22T07:13:24.573Z,1,13959,24.491865887883883,167.10248159964323,107.51111539623955,101.67893631757951,143.72482376964768,202.65680673437566,2.5292679844339894,82.567618786634,4.425656109968934,5.316436257225407,4.678523945331332,4.631606996751576,4.974834172273172,0.9318758443895268
58a50aebbb9e0f0001aca2a7,23,medium,0.982,0.9819646673322006,0.34375,1,42,300,diverging,diverging,0,0,1,3621,2026-02-22T07:13:28.245Z,1,3621,36.52757771166708,173.92073772312722,301.9647171932499,70.02192629361686,114.8137609294675,282.25835309778904,4.705631158620732,216.36328051931008,5.381570057566356,5.646359389668484,5.71064128975879,4.262988650402772,4.7519833916665455,1.550882768976295
58a50aebbb9e0f0001aca2a7,28,medium,0.982,0.982027706945012,0.3125,1,41,300,linear,diverging,2,1,0,16404,2026-02-22T07:13:44.688Z,0,16404,40.352213699026045,208.34887723823422,299.9851592028541,103.76714239927611,75.52429916444308,309.0091480530216,5.083933940001059,213.75145484049887,5.369481335418827,5.736601806892241,5.70406629838395,4.651740196002698,4.337608326533323,1.6280504082755054
58a50aebbb9e0f0001aca2a7,46,high,0.956,0.9566075439019134,0.5625,1,36,300,constant,linear,1,1,1,5781,2026-02-22T07:13:50.504Z,1,5781,32.76954435286877,157.2860921800967,302.52851321332156,70.07086157346046,54.01345907712653,146.618245280254,2.857042750193841,118.06492021215956,4.77966889235566,4.994629517536764,5.712506024322011,4.263677429650653,4.007577865788951,1.053281097914528
58a50aebbb9e0f0001aca2a7,40,high,0.956,0.9555591861731837,0.5,1,46,300,diverging,thermal,2,2,1,4696,2026-02-22T07:13:55.221Z,1,4696,37.433087649314515,206.05734887554235,302.1391529934475,155.46899707770027,119.52935732174274,322.32539305618525,4.589677579303656,199.02605384845702,5.298447627306021,5.778659224969587,5.711218601318911,5.052857888615532,4.79189335248401,1.5259862095828014
58a50aebbb9e0f0001aca2a7,9002,medium,0.8,0.9005162478768086,7.5,0,47,300,thermal,thermal,2,2,1,1181,2026-02-22T07:13:56.418Z,1,1181,37.459881391131205,199.8038177415943,300.9348368877921,143.61039971295912,226.50516918094922,360.90480778591524,3.839889267902964,150.70052526257686,5.021908348857239,5.891381215327862,5.707225995220591,4.974043227698388,5.427172959807374,1.348044386302425
58a50aebbb9e0f0001aca2a7,6,low,0.954,0.953237936287073,4.40625,1,38,300,diverging,linear,3,2,0,8094,2026-02-22T07:14:04.536Z,0,8094,38.70242322962777,185.79386115733928,300.3174226083436,52.54835530720002,128.85482182232064,301.1629633967739,3.321691950707361,243.60403904503056,5.499640735974588,5.710966485732247,5.705172916238597,3.9805850832045437,4.8664170712069215,1.2034802682621688
58a50aebbb9e0f0001aca2a7,38,high,0.956,0.9561302296225417,0.40625,1,19,200,thermal,constant,2,2,1,3037,2026-02-22T07:14:07.617Z,1,3037,30.947616693157077,123.83804483599641,202.31423158889248,24.486078900038535,218.43471994800797,271.2373869265834,4.341072919586758,145.5850732092197,4.987605964413303,5.606674431728217,5.310316249115755,3.238132377604119,5.391054784856125,1.4704224628687947
58a50aebbb9e0f0001aca2a7,18,medium,0.982,0.9821291958727628,0.171875,1,15,100,thermal,thermal,1,1,1,4771,2026-02-22T07:14:12.415Z,1,4771,21.787120120344838,157.7368536546737,123.62153321129941,138.88136154595372,238.41189737500133,287.91707554462005,4.6837529090298125,121.41446346952533,4.807412528697919,5.666139711106705,4.8180333403306035,4.940794645819191,5.478185488526468,1.5462324562967869
58a50aebbb9e0f0001aca2a7,27,medium,0.982,0.9825934043372001,0.25,1,44,300,constant,thermal,1,1,1,2938,2026-02-22T07:14:15.362Z,1,2938,30.547508680012825,237.0733830529644,324.86633514028597,278.0903897537597,51.77983737614386,287.0184852418132,5.492894592770048,148.11493539252243,5.004717387059298,5.6630246629435925,5.78372159278079,5.6315357069639935,3.9661292499060483,1.7052742433911823
58a50aebbb9e0f0001aca2a7,7,low,0.954,0.9543030168094813,10.78125,1,24,200,constant,diverging,2,2,1,13436,2026-02-22T07:14:28.809Z,1,13436,29.78747331926162,192.378677575689,212.46600658581664,139.56048181186952,55.72174602179051,155.8539146732451,2.636290500537747,79.96462186352115,4.394012292144876,5.05531489239502,5.359252559359679,4.945637871675112,4.038157664926922,0.9731588482294592
58a50aebbb9e0f0001aca2a7,39,high,0.956,0.9558175418660547,0.8125,1,35,300,thermal,constant,3,3,1,3548,2026-02-22T07:14:32.375Z,1,3548,32.46459583968029,135.89168184317973,304.2380483633055,24.94128082130962,187.17153600780156,287.7323489517507,3.687245684182029,162.60506360823408,5.097455374840245,5.665500130796113,5.718139084785942,3.255835553972706,5.237353972396179,1.3075881327591792
58a50aebbb9e0f0001aca2a7,1,low,0.954,0.953508415843015,0.703125,1,0,100,constant,constant,1,1,1,7072,2026-02-22T07:14:39.460Z,1,7072,19.98469022395962,67.4473472898995,99.88699237790625,19.192668444667945,37.105985006453025,95.73413933263282,1.4490018105579767,58.748398408916984,4.09014238558068,4.571966383924724,4.605040101306509,3.005319590241724,3.6403713565793625,0.3777525104980532
58a50aebbb9e0f0001aca2a7,8,low,0.954,0.9546735854022985,6,1,5,100,linear,linear,0,0,1,6553,2026-02-22T07:14:46.030Z,1,6553,21.71057890026889,105.25456813700394,123.48085997882784,37.11636626503585,65.69838276139436,117.23620178960367,1.5991730852804729,58.42316569497907,4.084684145205336,4.772684333794932,4.81689567849216,3.6406437506599394,4.200180706171771,0.47572043542570397
58a50aebbb9e0f0001aca2a7,44,high,0.956,0.9558544066507373,0.2265625,1,28,200,constant,thermal,0,0,1,7378,2026-02-22T07:14:53.417Z,1,7378,28.45463825391801,237.56043068525994,228.59286391491145,278.0729620346011,49.47439651318804,285.44972054292515,4.617950212849031,117.35491425206342,4.773687858140296,5.657563025266487,5.432379897721241,5.631473260301709,3.921466207974638,1.5321140514622056
58a50aebbb9e0f0001aca2a7,5,low,0.954,0.9543517134912035,0.4921875,1,11,100,thermal,diverging,0,0,1,4206,2026-02-22T07:14:57.642Z,1,4206,25.086982096986876,169.24002113782078,115.39717114234278,99.80060560466202,238.37287642880312,271.98277808149055,3.25932546226008,93.38257237446255,4.547356441430765,5.6094087092445,4.749246037387819,4.613144363601979,5.478022488579855,1.1845836829759717
58a50aebbb9e0f0001aca2a7,3,low,0.954,0.9541597909558868,0.52734375,1,18,200,diverging,constant,3,3,1,3858,2026-02-22T07:15:01.515Z,1,3858,30.73424507434397,134.8670808956869,199.58431780292725,22.274980805381716,146.20141239809757,245.09267084872005,5.1002730698998295,170.88190081988824,5.146807617839642,5.505708175761831,5.296737708559692,3.147378998474572,4.991801801344515,1.6312528411243976
58a50aebbb9e0f0001aca2a7,9,low,0.954,0.9531859383324134,1.21875,1,13,100,linear,thermal,1,1,1,6269,2026-02-22T07:15:07.788Z,1,6269,23.223091351102646,136.37086027448385,110.7844659517889,115.01362985266535,72.43338617775635,162.0032974605182,2.5135765520232574,90.21979990928637,4.513271977785055,5.093770430421272,4.7084888119734565,4.753707682933803,4.296378684764391,0.9256771619922172
58a50aebbb9e0f0001aca2a7,9003,medium,0.8,0.8349188996020465,6,0,47,300,thermal,thermal,3,3,1,6156,2026-02-22T07:15:13.951Z,1,6156,37.459881391131205,199.8038177415943,300.9348368877921,143.61039971295912,226.50516918094922,360.90480778591524,3.839889267902964,150.70052526257686,5.021908348857239,5.891381215327862,5.707225995220591,4.974043227698388,5.427172959807374,1.348044386302425
5b5a822e1ad8270001c4f28d,9,low,0.954,0.9541331634434637,0.84375,1,13,100,linear,thermal,0,1,0,13008,2026-02-22T07:07:01.041Z,0,13008,23.223091351102646,136.37086027448385,110.7844659517889,115.01362985266535,72.43338617775635,162.0032974605182,2.5135765520232574,90.21979990928637,4.513271977785055,5.093770430421272,4.7084888119734565,4.753707682933803,4.296378684764391,0.9256771619922172
5b5a822e1ad8270001c4f28d,31,medium,0.982,0.9815491614364215,0.3125,1,7,100,thermal,linear,3,3,1,7870,2026-02-22T07:07:08.940Z,1,7870,22.072426976070467,134.42597654341282,109.16202855394599,47.796717645455765,223.048560254293,239.84090102133817,3.295928434808732,100.51192891901722,4.620176317871904,5.484136553750759,4.693748929095293,3.887663049233343,5.411862815209688,1.1957173521012319
5b5a822e1ad8270001c4f28d,35,high,0.956,0.9558232482259329,0.65625,1,8,100,constant,diverging,3,3,1,7554,2026-02-22T07:07:16.507Z,1,7554,23.62762988920177,187.3316219194171,269.495350319676,139.6530668170946,54.49138923848814,142.07418352544263,2.0866755976306424,89.14394936962226,4.50140783003271,4.963363261659576,5.596922132300689,4.946296339298892,4.016227859859491,0.7403530416364276
5b5a822e1ad8270001c4f28d,30,medium,0.982,0.9823349831077554,0.40625,1,20,200,constant,linear,2,2,1,9843,2026-02-22T07:07:26.357Z,1,9843,26.455192697019992,147.72934305793888,235.43537318789427,69.90089109803726,48.76372299600452,98.64980317428015,1.7274467738437655,102.8819047974691,4.643254723144236,4.601662071486558,5.4618611067963965,4.261283001837623,3.907286264683656,0.5524166642286031
5b5a822e1ad8270001c4f28d,13,low,0.954,0.9530673379908787,0.5390625,1,25,200,linear,diverging,2,0,0,14562,2026-02-22T07:07:40.939Z,0,14562,34.753362350304805,175.23527090234077,201.72130849120305,89.64206976095173,77.49988535052118,224.6394986533593,4.288262020790843,152.4492911081484,5.03337016136233,5.418938586982049,5.307382694471926,4.506918451420994,4.363097164284381,1.458210759784843
5b5a822e1ad8270001c4f28d,11,low,0.954,0.9546674236339233,0.4453125,1,10,100,diverging,diverging,2,2,1,9570,2026-02-22T07:07:50.523Z,1,9570,24.491865887883883,167.10248159964323,107.51111539623955,101.67893631757951,143.72482376964768,202.65680673437566,2.5292679844339894,82.567618786634,4.425656109968934,5.316436257225407,4.678523945331332,4.631606996751576,4.974834172273172,0.9318758443895268
5b5a822e1ad8270001c4f28d,48,high,0.956,0.9554779918623081,1.25,1,12,100,constant,thermal,3,3,1,2937,2026-02-22T07:07:53.489Z,1,2937,24.867303627035785,231.3576636720933,192.32315246214824,277.4787849650425,43.54205812664932,277.4598454334222,4.711114250382047,29.616773748087304,3.4215480204747903,5.629273867404573,5.259696866034276,5.629341880397725,3.7964338692629735,1.5520448417335233
5b5a822e1ad8270001c4f28d,6,low,0.954,0.9542928143198882,0.9140625,1,38,300,diverging,linear,1,1,1,6647,2026-02-22T07:08:00.156Z,1,6647,38.70242322962777,185.79386115733928,300.3174226083436,52.54835530720002,128.85482182232064,301.1629633967739,3.321691950707361,243.60403904503056,5.499640735974588,5.710966485732247,5.705172916238597,3.9805850832045437,4.8664170712069215,1.2034802682621688
5b5a822e1ad8270001c4f28d,3,low,0.954,0.9539558526777339,0.66796875,1,18,200,diverging,constant,2,2,1,4294,2026-02-22T07:08:04.472Z,1,4294,30.73424507434397,134.8670808956869,199.58431780292725,22.274980805381716,146.20141239809757,245.09267084872005,5.1002730698998295,170.88190081988824,5.146807617839642,5.505708175761831,5.296737708559692,3.147378998474572,4.991801801344515,1.6312528411243976
5b5a822e1ad8270001c4f28d,37,high,0.956,0.9566188778765038,0.1484375,1,26,200,diverging,diverging,0,0,1,5410,2026-02-22T07:08:09.906Z,1,5410,34.635073916681705,191.42916194832205,203.79592269840802,99.82693601447288,147.72683559637574,268.69232274868233,3.975921769635415,144.55827752530587,4.980576539239661,5.597281763847613,5.317609680805723,4.613405542305533,5.00211130521583,1.3827685953148676
5b5a822e1ad8270001c4f28d,21,medium,0.982,0.9821628305650767,0.203125,1,22,200,diverging,linear,3,3,1,2745,2026-02-22T07:08:12.673Z,1,2745,31.599458726245334,162.6024310734111,204.95888747332756,52.73948472377908,132.48735180299894,233.62320003422536,2.7728614141192214,142.37406414745394,4.965457048121895,5.457980823206389,5.323297193855764,3.984148014823161,4.894006730303201,1.0234796840056672
5b5a822e1ad8270001c4f28d,4,low,0.954,0.9547577317475003,0.703125,1,21,200,linear,linear,0,2,0,5383,2026-02-22T07:08:18.073Z,0,5383,32.15088610251676,129.22769470621924,201.27712152285235,37.02195701099816,66.98077192483011,180.34406637163812,2.8740948322648503,106.93743709971204,4.681551773159416,5.200396145985676,5.305179376626509,3.638163808933852,4.219224899378995,1.0592111010821124
5b5a822e1ad8270001c4f28d,9000,medium,0.8,0.8681072626177609,7.75,0,47,300,thermal,thermal,0,0,1,5978,2026-02-22T07:08:24.072Z,1,5978,37.459881391131205,199.8038177415943,300.9348368877921,143.61039971295912,226.50516918094922,360.90480778591524,3.839889267902964,150.70052526257686,5.021908348857239,5.891381215327862,5.707225995220591,4.974043227698388,5.427172959807374,1.348044386302425
5b5a822e1ad8270001c4f28d,47,high,0.956,0.9564142456522572,0.96875,1,4,100,constant,linear,1,1,1,3199,2026-02-22T07:08:27.289Z,1,3199,22.65460623824759,143.41906962913907,263.2115726934799,69.82494432104548,50.71850330964443,74.854309076582,1.0221014844987955,84.05572125847057,4.443306585932365,4.328814514682955,5.573338018037254,4.260211259567955,3.945815615156328,0.03159699991716832
5b5a822e1ad8270001c4f28d,7,low,0.954,0.9541166706053973,0.333984375,1,24,200,constant,diverging,1,1,1,7431,2026-02-22T07:08:34.739Z,1,7431,29.78747331926162,192.378677575689,212.46600658581664,139.56048181186952,55.72174602179051,155.8539146732451,2.636290500537747,79.96462186352115,4.394012292144876,5.05531489239502,5.359252559359679,4.945637871675112,4.038157664926922,0.9731588482294592
5b5a822e1ad8270001c4f28d,25,medium,0.982,0.9818503584112268,0.265625,1,30,200,diverging,thermal,1,1,1,5565,2026-02-22T07:08:40.322Z,1,5565,32.45107970813402,172.0403292364764,200.78171593554202,127.09754127882101,124.49282028965762,252.41014173182296,4.879486011347053,154.75888070900393,5.048309175040461,5.53500928970582,5.302716256905349,4.852792014954403,4.832248548088001,1.5870871878083443
5b5a822e1ad8270001c4f28d,15,low,0.954,0.9547295185955114,1.125,1,31,200,thermal,thermal,0,0,1,4343,2026-02-22T07:08:44.671Z,1,4343,33.59256209801489,175.98990997552306,205.93890727342225,143.2085754069357,202.75886803459767,291.892463758398,3.3092244182458512,142.79915212417666,4.968417549053824,5.679805523760091,5.328065021215171,4.971260691924088,5.316937275270011,1.19973114667548
5b5a822e1ad8270001c4f28d,18,medium,0.982,0.9822727374068406,0.6875,1,15,100,thermal,thermal,3,3,1,3290,2026-02-22T07:08:47.972Z,1,3290,21.787120120344838,157.7368536546737,123.62153321129941,138.88136154595372,238.41189737500133,287.91707554462005,4.6837529090298125,121.41446346952533,4.807412528697919,5.666139711106705,4.8180333403306035,4.940794645819191,5.478185488526468,1.5462324562967869
5b5a822e1ad8270001c4f28d,29,medium,0.982,0.9819351143749715,0.234375,1,14,100,diverging,thermal,2,0,0,3097,2026-02-22T07:08:51.091Z,0,3097,22.372449473071093,152.67836391241025,118.20283323512426,139.2218051373111,113.45396894728168,198.86949431785814,3.4874784049160454,115.34828993587034,4.756588192054303,5.297664625148005,4.7732477202759505,4.943225491303938,4.740172724235752,1.25204225310414
5b5a822e1ad8270001c4f28d,34,high,0.956,0.9552757104812385,0.875,1,33,300,linear,constant,1,1,1,2131,2026-02-22T07:08:53.242Z,1,2131,37.35658361585906,157.1873142640553,300.1437122136039,21.53387275034956,76.71669725066278,296.7661294848175,5.2637507705557205,170.91303898233193,5.146988761649069,5.696308378001845,5.704594518904353,3.1150196327192647,4.353070128118153,1.662741830567938
5b5a822e1ad8270001c4f28d,17,medium,0.982,0.9811302714615773,0.34375,1,43,300,thermal,diverging,2,2,1,5330,2026-02-22T07:08:58.595Z,1,5330,36.39532825812249,185.04861278828125,300.8696077078248,85.55160635081367,202.41652205628563,317.0854537328089,3.7212532748650764,139.95826302905454,4.9484638396733445,5.762320069110988,5.707009288580605,4.4607408412514165,5.3152557096974675,1.3167441758441725
5b5a822e1ad8270001c4f28d,40,high,0.956,0.9565287522962351,0.75,1,46,300,diverging,thermal,3,0,0,9995,2026-02-22T07:09:08.614Z,0,9995,37.433087649314515,206.05734887554235,302.1391529934475,155.46899707770027,119.52935732174274,322.32539305618525,4.589677579303656,199.02605384845702,5.298447627306021,5.778659224969587,5.711218601318911,5.052857888615532,4.79189335248401,1.5259862095828014
5b5a822e1ad8270001c4f28d,22,medium,0.982,0.9813253748100511,0.25,1,23,200,thermal,linear,3,3,1,10262,2026-02-22T07:09:18.899Z,1,10262,29.910164683641945,118.03976999041497,203.58733767897365,27.136322393645926,186.73429819435495,238.4197463968924,3.6323275690621273,126.19191059400984,4.845697052924671,5.478218272583219,5.316586159685397,3.337061353509714,5.235027655692106,1.2926229193427277
5b5a822e1ad8270001c4f28d,23,medium,0.982,0.981772557808405,0.375,1,42,300,diverging,diverging,3,1,0,27328,2026-02-22T07:09:46.249Z,0,27328,36.52757771166708,173.92073772312722,301.9647171932499,70.02192629361686,114.8137609294675,282.25835309778904,4.705631158620732,216.36328051931008,5.381570057566356,5.646359389668484,5.71064128975879,4.262988650402772,4.7519833916665455,1.550882768976295
5b5a822e1ad8270001c4f28d,33,high,0.956,0.9560903809094056,0.5,1,40,300,constant,diverging,2,2,1,6830,2026-02-22T07:09:53.100Z,1,6830,36.3352938985642,210.72720542263636,301.24763548074145,139.51199971331982,53.62984030420117,227.28610166859565,3.800856841341524,180.10097156383642,5.199054729667006,5.4305996741907245,5.7082645334763065,4.945292892339053,4.000580259178041,1.3378540565945856
5b5a822e1ad8270001c4f28d,9001,medium,0.8,0.8351176551543207,6,0,47,300,thermal,thermal,0,0,1,3210,2026-02-22T07:09:56.332Z,1,3210,37.459881391131205,199.8038177415943,300.9348368877921,143.61039971295912,226.50516918094922,360.90480778591524,3.839889267902964,150.70052526257686,5.021908348857239,5.891381215327862,5.707225995220591,4.974043227698388,5.427172959807374,1.348044386302425
5b5a822e1ad8270001c4f28d,42,high,0.956,0.9564759616141039,4,1,27,200,thermal,diverging,0,0,1,3679,2026-02-22T07:10:00.019Z,1,3679,35.90157232786049,184.755030287204,201.96771045700197,99.61735703854978,218.05670834158,288.2422119584433,3.775115509612621,157.89414953810356,5.068238254350715,5.667264440762101,5.308602841516329,4.611324777957608,5.389330638495752,1.3310764041549632
5b5a822e1ad8270001c4f28d,10,low,0.954,0.9533735523569836,5.4375,1,32,300,constant,constant,2,2,1,4292,2026-02-22T07:10:04.333Z,1,4292,26.62940405233536,89.58371603260767,299.8352510747976,24.30943155035257,52.10905259922612,154.1715046020102,3.2301956833225236,138.47258547515827,4.937868062057517,5.044530986523282,5.703566621610934,3.2311771148165715,3.9723473958121263,1.1756337240676664
5b5a822e1ad8270001c4f28d,28,medium,0.982,0.982262805192053,0.21875,1,41,300,linear,diverging,1,3,0,3096,2026-02-22T07:10:07.449Z,0,3096,40.352213699026045,208.34887723823422,299.9851592028541,103.76714239927611,75.52429916444308,309.0091480530216,5.083933940001059,213.75145484049887,5.369481335418827,5.736601806892241,5.70406629838395,4.651740196002698,4.337608326533323,1.6280504082755054
5b5a822e1ad8270001c4f28d,2,low,0.954,0.9548324968529356,2.765625,1,39,300,thermal,linear,3,2,0,5577,2026-02-22T07:10:13.033Z,0,5577,36.33666517822927,178.31679286221234,300.4567724809394,52.375820717957396,214.12557085114125,322.5339491738996,4.062820497625559,139.51438010205788,4.945309833017289,5.779304051785327,5.7056366628561115,3.9773578478794227,5.371221908106992,1.4043357564025858
5b5a822e1ad8270001c4f28d,38,high,0.956,0.9552661561974807,0.25,1,19,200,thermal,constant,0,0,1,10729,2026-02-22T07:10:23.783Z,1,10729,30.947616693157077,123.83804483599641,202.31423158889248,24.486078900038535,218.43471994800797,271.2373869265834,4.341072919586758,145.5850732092197,4.987605964413303,5.606674431728217,5.310316249115755,3.238132377604119,5.391054784856125,1.4704224628687947
5b5a822e1ad8270001c4f28d,41,high,0.956,0.9557728811740007,0.390625,1,1,100,linear,constant,1,0,0,14809,2026-02-22T07:10:38.615Z,0,14809,20.58662264927231,82.17163361459026,101.54967791222683,20.834200092538367,77.56067838632953,123.17637697676385,1.7591420231361914,78.59597913311623,4.37696357817143,4.821702949933453,4.621532371473436,3.0834775520800033,4.3638712992727955,0.5704946963734504
5b5a822e1ad8270001c4f28d,12,low,0.954,0.9549250307770147,0.65625,1,6,100,diverging,linear,1,1,1,3317,2026-02-22T07:10:41.949Z,1,3317,25.022827748922104,141.50964783164235,123.29283971358615,51.94329204035352,143.84537094778585,183.14773886699817,2.0465867408746914,98.58651120536058,4.601026725754073,5.215738364059232,4.815373084776314,3.969221379231918,4.9756667661471345,0.7210476866827137
5b5a822e1ad8270001c4f28d,44,high,0.956,0.955650065554542,0.625,1,28,200,constant,thermal,1,1,1,15810,2026-02-22T07:10:57.781Z,1,15810,28.45463825391801,237.56043068525994,228.59286391491145,278.0729620346011,49.47439651318804,285.44972054292515,4.617950212849031,117.35491425206342,4.773687858140296,5.657563025266487,5.432379897721241,5.631473260301709,3.921466207974638,1.5321140514622056
5b5a822e1ad8270001c4f28d,27,medium,0.982,0.9810135892662025,0.25,1,44,300,constant,thermal,3,3,1,51955,2026-02-22T07:11:49.747Z,1,51955,30.547508680012825,237.0733830529644,324.86633514028597,278.0903897537597,51.77983737614386,287.0184852418132,5.492894592770048,148.11493539252243,5.004717387059298,5.6630246629435925,5.78372159278079,5.6315357069639935,3.9661292499060483,1.7052742433911823
5b5a822e1ad8270001c4f28d,14,low,0.954,0.9530522834336481,10.21875,1,9,100,linear,diverging,0,0,1,31094,2026-02-22T07:12:20.847Z,1,31094,23.586200888559,129.73871008379044,104.59155220439969,63.69534192297375,87.22355851147695,151.02284968798196,2.641182423701177,89.32502916820073,4.503414599958653,5.02403083644294,4.651018428894381,4.169689203906956,4.479874030651736,0.9750057381046586
5b5a822e1ad8270001c4f28d,20,medium,0.982,0.9827190197254462,1.5,1,34,300,diverging,constant,1,1,1,17003,2026-02-22T07:12:37.864Z,1,17003,35.732347824310246,158.8317556339141,299.95533384807493,20.867094584207436,135.25067369596553,305.59367151352336,4.942906713055899,232.14792492172444,5.45167312302911,5.7255233253686,5.703966903808349,3.0849829764901857,4.914496378088675,1.5999746189962447
5b5a822e1ad8270001c4f28d,1,low,0.954,0.9541540860411227,0.5625,1,0,100,constant,constant,3,2,0,14989,2026-02-22T07:12:52.863Z,0,14989,19.98469022395962,67.4473472898995,99.88699237790625,19.192668444667945,37.105985006453025,95.73413933263282,1.4490018105579767,58.748398408916984,4.09014238558068,4.571966383924724,4.605040101306509,3.005319590241724,3.6403713565793625,0.3777525104980532
5b5a822e1ad8270001c4f28d,9002,medium,0.8,0.8686829764366912,7.75,0,47,300,thermal,thermal,1,1,1,2925,2026-02-22T07:12:55.797Z,1,2925,37.459881391131205,199.8038177415943,300.9348368877921,143.61039971295912,226.50516918094922,360.90480778591524,3.839889267902964,150.70052526257686,5.021908348857239,5.891381215327862,5.707225995220591,4.974043227698388,5.427172959807374,1.348044386302425
5b5a822e1ad8270001c4f28d,16,low,0.954,0.9535168715798183,1.3125,1,29,200,linear,thermal,1,2,0,3295,2026-02-22T07:12:59.114Z,0,3295,34.74760811980196,188.65443904199046,203.01722575293925,143.07013019902715,82.14913709363398,263.1834582941921,4.646281805533995,164.0491186293232,5.106243118262667,5.576643779583788,5.313783279135265,4.970300196293575,4.42063582787774,1.5382172338411138
5b5a822e1ad8270001c4f28d,19,medium,0.982,0.9823096306223966,0.34375,1,37,300,linear,linear,2,2,1,3561,2026-02-22T07:13:02.697Z,1,3561,35.12135349611994,142.6003843022554,301.97912894312304,32.9038257617787,59.4042428674047,243.55048264367326,4.49199327482781,154.2760391266058,5.045204430592388,5.499421760582574,5.710688999422533,3.523527862348589,4.101059348622709,1.5045202486646354
5b5a822e1ad8270001c4f28d,43,high,0.956,0.9567708005558511,0.53125,1,2,100,diverging,constant,0,0,1,26868,2026-02-22T07:13:29.581Z,1,26868,20.310783717353576,106.53987935316164,112.26716036767546,21.50235043437614,165.33786820608148,199.250621791949,3.1496626811452675,61.64558291732101,4.137493174743553,5.299569691022045,4.721771727222967,3.1136197675044675,5.1140210704757765,1.1504652754279938
5b5a822e1ad8270001c4f28d,24,medium,0.982,0.9823138228183276,0.1484375,1,47,300,thermal,thermal,1,1,1,7676,2026-02-22T07:13:37.264Z,1,7676,37.459881391131205,199.8038177415943,300.9348368877921,143.61039971295912,226.50516918094922,360.90480778591524,3.839889267902964,150.70052526257686,5.021908348857239,5.891381215327862,5.707225995220591,4.974043227698388,5.427172959807374,1.348044386302425
5b5a822e1ad8270001c4f28d,32,medium,0.982,0.9828238599655164,0.15625,1,3,100,thermal,constant,1,2,0,8295,2026-02-22T07:13:45.564Z,0,8295,18.199582813426808,102.62058557188318,116.36024572184083,23.52721783354393,250.42525048066886,264.4418372666389,3.612927585936114,78.61462816750283,4.377197846915053,5.581395748007386,4.757549976331536,3.199783432903778,5.527145730574132,1.2872824243922176
5b5a822e1ad8270001c4f28d,46,high,0.956,0.9560659302851591,0.359375,1,36,300,constant,linear,1,1,1,4195,2026-02-22T07:13:49.764Z,1,4195,32.76954435286877,157.2860921800967,302.52851321332156,70.07086157346046,54.01345907712653,146.618245280254,2.857042750193841,118.06492021215956,4.77966889235566,4.994629517536764,5.712506024322011,4.263677429650653,4.007577865788951,1.053281097914528
5b5a822e1ad8270001c4f28d,8,low,0.954,0.9546502708205972,1.40625,1,5,100,linear,linear,2,1,0,4978,2026-02-22T07:13:54.747Z,0,4978,21.71057890026889,105.25456813700394,123.48085997882784,37.11636626503585,65.69838276139436,117.23620178960367,1.5991730852804729,58.42316569497907,4.084684145205336,4.772684333794932,4.81689567849216,3.6406437506599394,4.200180706171771,0.47572043542570397
5b5a822e1ad8270001c4f28d,5,low,0.954,0.9537241045952686,0.50390625,1,11,100,thermal,diverging,2,2,1,5295,2026-02-22T07:14:00.047Z,1,5295,25.086982096986876,169.24002113782078,115.39717114234278,99.80060560466202,238.37287642880312,271.98277808149055,3.25932546226008,93.38257237446255,4.547356441430765,5.6094087092445,4.749246037387819,4.613144363601979,5.478022488579855,1.1845836829759717
5b5a822e1ad8270001c4f28d,26,medium,0.982,0.9810087519147428,0.25,1,45,300,linear,thermal,3,2,0,5895,2026-02-22T07:14:05.948Z,0,5895,37.41351929007537,179.08793207702453,302.48359957850596,115.06543310831299,66.96461177576752,285.0876438911305,4.899081677162415,160.70784252166655,5.085791265850159,5.656298211046294,5.712357601532881,4.754154110593817,4.218987154650946,1.5910868931861089
5b5a822e1ad8270001c4f28d,36,high,0.956,0.955127873169508,0.3125,1,16,200,constant,constant,0,1,0,3810,2026-02-22T07:14:09.763Z,0,3810,24.91764780853728,78.63496319607663,200.0237172626099,16.275574603288007,41.41730163928375,121.15087660954092,2.0691777433624807,82.37499706888882,4.423348469080031,4.805256974178538,5.298935761615437,2.849293631230113,3.747556336535357,0.7319724998642649
5b5a822e1ad8270001c4f28d,39,high,0.956,0.9559612571357182,0.75,1,35,300,thermal,constant,3,3,1,3512,2026-02-22T07:14:13.280Z,1,3512,32.46459583968029,135.89168184317973,304.2380483633055,24.94128082130962,187.17153600780156,287.7323489517507,3.687245684182029,162.60506360823408,5.097455374840245,5.665500130796113,5.718139084785942,3.255835553972706,5.237353972396179,1.3075881327591792
5b5a822e1ad8270001c4f28d,45,high,0.956,0.9558709608764461,1,1,17,200,linear,constant,3,3,1,1828,2026-02-22T07:14:15.114Z,1,1828,31.75191347562168,116.6442795167885,200.5962589482392,19.398446213299906,72.39335088318684,193.82418621121417,3.2399138888287324,108.2690054279091,4.693812781572795,5.272097542696464,5.301792615609827,3.015458731934682,4.295833344094659,1.1786285002456223
5b5a822e1ad8270001c4f28d,9003,medium,0.8,0.8421873741151774,7,0,47,300,thermal,thermal,1,1,1,6244,2026-02-22T07:14:21.363Z,1,6244,37.459881391131205,199.8038177415943,300.9348368877921,143.61039971295912,226.50516918094922,360.90480778591524,3.839889267902964,150.70052526257686,5.021908348857239,5.891381215327862,5.707225995220591,4.974043227698388,5.427172959807374,1.348044386302425
5beb38c9aec9ef0001e9c83d,24,medium,0.982,0.9825133439432997,0.125,1,46,300,diverging,thermal,1,1,1,22605,2026-02-22T07:10:17.308Z,1,22605,37.433087649314515,206.05734887554235,302.1391529934475,155.46899707770027,119.52935732174274,322.32539305618525,4.589677579303656,199.02605384845702,5.298447627306021,5.778659224969587,5.711218601318911,5.052857888615532,4.79189335248401,1.5259862095828014
5beb38c9aec9ef0001e9c83d,25,medium,0.982,0.9812733684072494,0.203125,1,1,100,linear,constant,2,2,1,16244,2026-02-22T07:10:33.577Z,1,16244,20.58662264927231,82.17163361459026,101.54967791222683,20.834200092538367,77.56067838632953,123.17637697676385,1.7591420231361914,78.59597913311623,4.37696357817143,4.821702949933453,4.621532371473436,3.0834775520800033,4.3638712992727955,0.5704946963734504
5beb38c9aec9ef0001e9c83d,5,low,0.954,0.9533721094320073,0.234375,1,22,200,diverging,linear,3,3,1,89313,2026-02-22T07:12:03.005Z,1,89313,31.599458726245334,162.6024310734111,204.95888747332756,52.73948472377908,132.48735180299894,233.62320003422536,2.7728614141192214,142.37406414745394,4.965457048121895,5.457980823206389,5.323297193855764,3.984148014823161,4.894006730303201,1.0234796840056672
5beb38c9aec9ef0001e9c83d,27,medium,0.982,0.9821219807151416,0.40625,1,2,100,diverging,constant,3,3,1,6309,2026-02-22T07:12:09.365Z,1,6309,20.310783717353576,106.53987935316164,112.26716036767546,21.50235043437614,165.33786820608148,199.250621791949,3.1496626811452675,61.64558291732101,4.137493174743553,5.299569691022045,4.721771727222967,3.1136197675044675,5.1140210704757765,1.1504652754279938
5beb38c9aec9ef0001e9c83d,37,high,0.956,0.9563870412695709,0.2109375,1,11,100,thermal,diverging,2,2,1,7835,2026-02-22T07:12:17.274Z,1,7835,25.086982096986876,169.24002113782078,115.39717114234278,99.80060560466202,238.37287642880312,271.98277808149055,3.25932546226008,93.38257237446255,4.547356441430765,5.6094087092445,4.749246037387819,4.613144363601979,5.478022488579855,1.1845836829759717
5beb38c9aec9ef0001e9c83d,19,medium,0.982,0.9823604066018994,0.53125,1,8,100,constant,diverging,0,0,1,30522,2026-02-22T07:12:47.861Z,1,30522,23.62762988920177,187.3316219194171,269.495350319676,139.6530668170946,54.49138923848814,142.07418352544263,2.0866755976306424,89.14394936962226,4.50140783003271,4.963363261659576,5.596922132300689,4.946296339298892,4.016227859859491,0.7403530416364276
5beb38c9aec9ef0001e9c83d,28,medium,0.982,0.9828486509802169,0.171875,1,28,200,constant,thermal,1,1,1,5854,2026-02-22T07:12:53.774Z,1,5854,28.45463825391801,237.56043068525994,228.59286391491145,278.0729620346011,49.47439651318804,285.44972054292515,4.617950212849031,117.35491425206342,4.773687858140296,5.657563025266487,5.432379897721241,5.631473260301709,3.921466207974638,1.5321140514622056
5beb38c9aec9ef0001e9c83d,29,medium,0.982,0.9814110790344808,0.15625,1,17,200,linear,constant,0,0,1,16599,2026-02-22T07:13:10.452Z,1,16599,31.75191347562168,116.6442795167885,200.5962589482392,19.398446213299906,72.39335088318684,193.82418621121417,3.2399138888287324,108.2690054279091,4.693812781572795,5.272097542696464,5.301792615609827,3.015458731934682,4.295833344094659,1.1786285002456223
5beb38c9aec9ef0001e9c83d,3,low,0.954,0.9540516087204775,0.984375,1,37,300,linear,linear,3,3,1,26276,2026-02-22T07:13:36.763Z,1,26276,35.12135349611994,142.6003843022554,301.97912894312304,32.9038257617787,59.4042428674047,243.55048264367326,4.49199327482781,154.2760391266058,5.045204430592388,5.499421760582574,5.710688999422533,3.523527862348589,4.101059348622709,1.5045202486646354
5beb38c9aec9ef0001e9c83d,15,low,0.954,0.9534673335570245,9.09375,1,7,100,thermal,linear,2,2,1,103759,2026-02-22T07:15:20.595Z,1,103759,22.072426976070467,134.42597654341282,109.16202855394599,47.796717645455765,223.048560254293,239.84090102133817,3.295928434808732,100.51192891901722,4.620176317871904,5.484136553750759,4.693748929095293,3.887663049233343,5.411862815209688,1.1957173521012319
5beb38c9aec9ef0001e9c83d,8,low,0.954,0.9542355866116293,3,1,47,300,thermal,thermal,2,2,1,141296,2026-02-22T07:17:41.959Z,1,141296,37.459881391131205,199.8038177415943,300.9348368877921,143.61039971295912,226.50516918094922,360.90480778591524,3.839889267902964,150.70052526257686,5.021908348857239,5.891381215327862,5.707225995220591,4.974043227698388,5.427172959807374,1.348044386302425
5beb38c9aec9ef0001e9c83d,47,high,0.956,0.9560959896082099,1,1,31,200,thermal,thermal,2,2,1,9015,2026-02-22T07:17:51.030Z,1,9015,33.59256209801489,175.98990997552306,205.93890727342225,143.2085754069357,202.75886803459767,291.892463758398,3.3092244182458512,142.79915212417666,4.968417549053824,5.679805523760091,5.328065021215171,4.971260691924088,5.316937275270011,1.19973114667548
5beb38c9aec9ef0001e9c83d,9000,medium,0.8,0.8306771891143951,6,0,47,300,thermal,thermal,2,2,1,7810,2026-02-22T07:17:58.882Z,1,7810,37.459881391131205,199.8038177415943,300.9348368877921,143.61039971295912,226.50516918094922,360.90480778591524,3.839889267902964,150.70052526257686,5.021908348857239,5.891381215327862,5.707225995220591,4.974043227698388,5.427172959807374,1.348044386302425
5beb38c9aec9ef0001e9c83d,13,low,0.954,0.9548297968625177,0.4453125,1,14,100,diverging,thermal,2,3,0,142240,2026-02-22T07:20:21.168Z,0,142240,22.372449473071093,152.67836391241025,118.20283323512426,139.2218051373111,113.45396894728168,198.86949431785814,3.4874784049160454,115.34828993587034,4.756588192054303,5.297664625148005,4.7732477202759505,4.943225491303938,4.740172724235752,1.25204225310414
5beb38c9aec9ef0001e9c83d,18,medium,0.982,0.9820972324859808,0.1875,1,33,300,linear,constant,2,2,1,12905,2026-02-22T07:20:34.123Z,1,12905,37.35658361585906,157.1873142640553,300.1437122136039,21.53387275034956,76.71669725066278,296.7661294848175,5.2637507705557205,170.91303898233193,5.146988761649069,5.696308378001845,5.704594518904353,3.1150196327192647,4.353070128118153,1.662741830567938
5beb38c9aec9ef0001e9c83d,11,low,0.954,0.953079227048945,0.65625,1,44,300,constant,thermal,2,2,1,136263,2026-02-22T07:22:50.439Z,1,136263,30.547508680012825,237.0733830529644,324.86633514028597,278.0903897537597,51.77983737614386,287.0184852418132,5.492894592770048,148.11493539252243,5.004717387059298,5.6630246629435925,5.78372159278079,5.6315357069639935,3.9661292499060483,1.7052742433911823
5beb38c9aec9ef0001e9c83d,39,high,0.956,0.9564543286927961,0.5625,1,24,200,constant,diverging,3,3,1,9877,2026-02-22T07:23:00.343Z,1,9877,29.78747331926162,192.378677575689,212.46600658581664,139.56048181186952,55.72174602179051,155.8539146732451,2.636290500537747,79.96462186352115,4.394012292144876,5.05531489239502,5.359252559359679,4.945637871675112,4.038157664926922,0.9731588482294592
5beb38c9aec9ef0001e9c83d,16,low,0.954,0.9535214524450566,11.109375,1,3,100,thermal,constant,1,1,1,50904,2026-02-22T07:23:51.278Z,1,50904,18.199582813426808,102.62058557188318,116.36024572184083,23.52721783354393,250.42525048066886,264.4418372666389,3.612927585936114,78.61462816750283,4.377197846915053,5.581395748007386,4.757549976331536,3.199783432903778,5.527145730574132,1.2872824243922176
5beb38c9aec9ef0001e9c83d,23,medium,0.982,0.9817891044320286,0.234375,1,35,300,thermal,constant,3,3,1,15607,2026-02-22T07:24:06.965Z,1,15607,32.46459583968029,135.89168184317973,304.2380483633055,24.94128082130962,187.17153600780156,287.7323489517507,3.687245684182029,162.60506360823408,5.097455374840245,5.665500130796113,5.718139084785942,3.255835553972706,5.237353972396179,1.3075881327591792
5beb38c9aec9ef0001e9c83d,14,low,0.954,0.9540436782882608,0.890625,1,20,200,constant,linear,3,3,1,61596,2026-02-22T07:25:08.624Z,1,61596,26.455192697019992,147.72934305793888,235.43537318789427,69.90089109803726,48.76372299600452,98.64980317428015,1.7274467738437655,102.8819047974691,4.643254723144236,4.601662071486558,5.4618611067963965,4.261283001837623,3.907286264683656,0.5524166642286031
5beb38c9aec9ef0001e9c83d,22,medium,0.982,0.9810237295493116,0.15625,1,19,200,thermal,constant,1,1,1,42560,2026-02-22T07:25:51.228Z,1,42560,30.947616693157077,123.83804483599641,202.31423158889248,24.486078900038535,218.43471994800797,271.2373869265834,4.341072919586758,145.5850732092197,4.987605964413303,5.606674431728217,5.310316249115755,3.238132377604119,5.391054784856125,1.4704224628687947
5beb38c9aec9ef0001e9c83d,42,high,0.956,0.955521780783658,0.375,1,32,300,constant,constant,1,1,1,4712,2026-02-22T07:25:55.992Z,1,4712,26.62940405233536,89.58371603260767,299.8352510747976,24.30943155035257,52.10905259922612,154.1715046020102,3.2301956833225236,138.47258547515827,4.937868062057517,5.044530986523282,5.703566621610934,3.2311771148165715,3.9723473958121263,1.1756337240676664
5beb38c9aec9ef0001e9c83d,21,medium,0.982,0.9820693705979767,0.234375,1,26,200,diverging,diverging,1,1,1,6287,2026-02-22T07:26:02.334Z,1,6287,34.635073916681705,191.42916194832205,203.79592269840802,99.82693601447288,147.72683559637574,268.69232274868233,3.975921769635415,144.55827752530587,4.980576539239661,5.597281763847613,5.317609680805723,4.613405542305533,5.00211130521583,1.3827685953148676
5beb38c9aec9ef0001e9c83d,44,high,0.956,0.9568478500750116,0.75,1,6,100,diverging,linear,1,1,1,8260,2026-02-22T07:26:10.644Z,1,8260,25.022827748922104,141.50964783164235,123.29283971358615,51.94329204035352,143.84537094778585,183.14773886699817,2.0465867408746914,98.58651120536058,4.601026725754073,5.215738364059232,4.815373084776314,3.969221379231918,4.9756667661471345,0.7210476866827137
5beb38c9aec9ef0001e9c83d,7,low,0.954,0.9541224123291518,0.515625,1,42,300,diverging,diverging,1,0,0,203030,2026-02-22T07:29:33.743Z,0,203030,36.52757771166708,173.92073772312722,301.9647171932499,70.02192629361686,114.8137609294675,282.25835309778904,4.705631158620732,216.36328051931008,5.381570057566356,5.646359389668484,5.71064128975879,4.262988650402772,4.7519833916665455,1.550882768976295
5beb38c9aec9ef0001e9c83d,9001,medium,0.8,0.8616490183243213,7.999992370605469,0,47,300,thermal,thermal,3,3,1,7460,2026-02-22T07:29:41.253Z,1,7460,37.459881391131205,199.8038177415943,300.9348368877921,143.61039971295912,226.50516918094922,360.90480778591524,3.839889267902964,150.70052526257686,5.021908348857239,5.891381215327862,5.707225995220591,4.974043227698388,5.427172959807374,1.348044386302425
5beb38c9aec9ef0001e9c83d,38,high,0.956,0.9564584362571231,0.6875,1,38,300,diverging,linear,0,0,1,17606,2026-02-22T07:29:58.902Z,1,17606,38.70242322962777,185.79386115733928,300.3174226083436,52.54835530720002,128.85482182232064,301.1629633967739,3.321691950707361,243.60403904503056,5.499640735974588,5.710966485732247,5.705172916238597,3.9805850832045437,4.8664170712069215,1.2034802682621688
5beb38c9aec9ef0001e9c83d,32,medium,0.982,0.9821203462112907,0.265625,1,12,100,constant,thermal,0,0,1,4010,2026-02-22T07:30:02.980Z,1,4010,24.867303627035785,231.3576636720933,192.32315246214824,277.4787849650425,43.54205812664932,277.4598454334222,4.711114250382047,29.616773748087304,3.4215480204747903,5.629273867404573,5.259696866034276,5.629341880397725,3.7964338692629735,1.5520448417335233
5beb38c9aec9ef0001e9c83d,45,high,0.956,0.9559152923086849,0.875,1,25,200,linear,diverging,3,3,1,8737,2026-02-22T07:30:11.788Z,1,8737,34.753362350304805,175.23527090234077,201.72130849120305,89.64206976095173,77.49988535052118,224.6394986533593,4.288262020790843,152.4492911081484,5.03337016136233,5.418938586982049,5.307382694471926,4.506918451420994,4.363097164284381,1.458210759784843
5beb38c9aec9ef0001e9c83d,36,high,0.956,0.9568077983808314,0.875,1,21,200,linear,linear,3,3,1,6420,2026-02-22T07:30:18.220Z,1,6420,32.15088610251676,129.22769470621924,201.27712152285235,37.02195701099816,66.98077192483011,180.34406637163812,2.8740948322648503,106.93743709971204,4.681551773159416,5.200396145985676,5.305179376626509,3.638163808933852,4.219224899378995,1.0592111010821124
5beb38c9aec9ef0001e9c83d,17,medium,0.982,0.9819313790860122,0.125,1,40,300,constant,diverging,3,3,1,65603,2026-02-22T07:31:23.935Z,1,65603,36.3352938985642,210.72720542263636,301.24763548074145,139.51199971331982,53.62984030420117,227.28610166859565,3.800856841341524,180.10097156383642,5.199054729667006,5.4305996741907245,5.7082645334763065,4.945292892339053,4.000580259178041,1.3378540565945856
5beb38c9aec9ef0001e9c83d,43,high,0.956,0.9551000829436763,0.3125,1,10,100,diverging,diverging,3,3,1,7163,2026-02-22T07:31:31.178Z,1,7163,24.491865887883883,167.10248159964323,107.51111539623955,101.67893631757951,143.72482376964768,202.65680673437566,2.5292679844339894,82.567618786634,4.425656109968934,5.316436257225407,4.678523945331332,4.631606996751576,4.974834172273172,0.9318758443895268
5beb38c9aec9ef0001e9c83d,9,low,0.954,0.9539939177621074,7.03125,1,30,200,diverging,thermal,2,2,1,6584,2026-02-22T07:31:37.823Z,1,6584,32.45107970813402,172.0403292364764,200.78171593554202,127.09754127882101,124.49282028965762,252.41014173182296,4.879486011347053,154.75888070900393,5.048309175040461,5.53500928970582,5.302716256905349,4.852792014954403,4.832248548088001,1.5870871878083443
5beb38c9aec9ef0001e9c83d,1,low,0.954,0.9548405203998692,0.6796875,1,43,300,thermal,diverging,2,2,1,328,2026-02-22T07:31:38.225Z,1,328,36.39532825812249,185.04861278828125,300.8696077078248,85.55160635081367,202.41652205628563,317.0854537328089,3.7212532748650764,139.95826302905454,4.9484638396733445,5.762320069110988,5.707009288580605,4.4607408412514165,5.3152557096974675,1.3167441758441725
5beb38c9aec9ef0001e9c83d,31,medium,0.982,0.9815703265161099,0.25,1,4,100,constant,linear,3,3,1,35623,2026-02-22T07:32:13.855Z,1,35623,22.65460623824759,143.41906962913907,263.2115726934799,69.82494432104548,50.71850330964443,74.854309076582,1.0221014844987955,84.05572125847057,4.443306585932365,4.328814514682955,5.573338018037254,4.260211259567955,3.945815615156328,0.03159699991716832
5beb38c9aec9ef0001e9c83d,2,low,0.954,0.9538885802326033,0.310546875,1,15,100,thermal,thermal,3,3,1,16007,2026-02-22T07:32:29.938Z,1,16007,21.787120120344838,157.7368536546737,123.62153321129941,138.88136154595372,238.41189737500133,287.91707554462005,4.6837529090298125,121.41446346952533,4.807412528697919,5.666139711106705,4.8180333403306035,4.940794645819191,5.478185488526468,1.5462324562967869
5beb38c9aec9ef0001e9c83d,12,low,0.954,0.9539647348409038,1.6875,1,41,300,linear,diverging,0,3,0,108902,2026-02-22T07:34:18.916Z,0,108902,40.352213699026045,208.34887723823422,299.9851592028541,103.76714239927611,75.52429916444308,309.0091480530216,5.083933940001059,213.75145484049887,5.369481335418827,5.736601806892241,5.70406629838395,4.651740196002698,4.337608326533323,1.6280504082755054
5beb38c9aec9ef0001e9c83d,40,high,0.956,0.9559573395999224,4,1,5,100,linear,linear,0,0,1,11490,2026-02-22T07:34:30.476Z,1,11490,21.71057890026889,105.25456813700394,123.48085997882784,37.11636626503585,65.69838276139436,117.23620178960367,1.5991730852804729,58.42316569497907,4.084684145205336,4.772684333794932,4.81689567849216,3.6406437506599394,4.200180706171771,0.47572043542570397
5beb38c9aec9ef0001e9c83d,9002,medium,0.8,0.8902110793700955,4,0,47,300,thermal,thermal,1,1,1,4981,2026-02-22T07:34:35.517Z,1,4981,37.459881391131205,199.8038177415943,300.9348368877921,143.61039971295912,226.50516918094922,360.90480778591524,3.839889267902964,150.70052526257686,5.021908348857239,5.891381215327862,5.707225995220591,4.974043227698388,5.427172959807374,1.348044386302425
5beb38c9aec9ef0001e9c83d,4,low,0.954,0.9532222162386881,0.421875,1,34,300,diverging,constant,0,0,1,5284,2026-02-22T07:34:40.843Z,1,5284,35.732347824310246,158.8317556339141,299.95533384807493,20.867094584207436,135.25067369596553,305.59367151352336,4.942906713055899,232.14792492172444,5.45167312302911,5.7255233253686,5.703966903808349,3.0849829764901857,4.914496378088675,1.5999746189962447
5beb38c9aec9ef0001e9c83d,46,high,0.956,0.9556584271682564,4,1,9,100,linear,diverging,1,1,1,4061,2026-02-22T07:34:44.939Z,1,4061,23.586200888559,129.73871008379044,104.59155220439969,63.69534192297375,87.22355851147695,151.02284968798196,2.641182423701177,89.32502916820073,4.503414599958653,5.02403083644294,4.651018428894381,4.169689203906956,4.479874030651736,0.9750057381046586
5beb38c9aec9ef0001e9c83d,41,high,0.956,0.9558596501875165,0.4375,1,13,100,linear,thermal,3,3,1,6779,2026-02-22T07:34:51.797Z,1,6779,23.223091351102646,136.37086027448385,110.7844659517889,115.01362985266535,72.43338617775635,162.0032974605182,2.5135765520232574,90.21979990928637,4.513271977785055,5.093770430421272,4.7084888119734565,4.753707682933803,4.296378684764391,0.9256771619922172
5beb38c9aec9ef0001e9c83d,33,high,0.956,0.9568108405623463,0.875,1,0,100,constant,constant,1,1,1,5866,2026-02-22T07:34:57.693Z,1,5866,19.98469022395962,67.4473472898995,99.88699237790625,19.192668444667945,37.105985006453025,95.73413933263282,1.4490018105579767,58.748398408916984,4.09014238558068,4.571966383924724,4.605040101306509,3.005319590241724,3.6403713565793625,0.3777525104980532
5beb38c9aec9ef0001e9c83d,30,medium,0.982,0.9817937586297525,0.1171875,1,36,300,constant,linear,3,3,1,29599,2026-02-22T07:35:27.317Z,1,29599,32.76954435286877,157.2860921800967,302.52851321332156,70.07086157346046,54.01345907712653,146.618245280254,2.857042750193841,118.06492021215956,4.77966889235566,4.994629517536764,5.712506024322011,4.263677429650653,4.007577865788951,1.053281097914528
5beb38c9aec9ef0001e9c83d,35,high,0.956,0.9560320740182138,0.59375,1,18,200,diverging,constant,2,2,1,4548,2026-02-22T07:35:31.893Z,1,4548,30.73424507434397,134.8670808956869,199.58431780292725,22.274980805381716,146.20141239809757,245.09267084872005,5.1002730698998295,170.88190081988824,5.146807617839642,5.505708175761831,5.296737708559692,3.147378998474572,4.991801801344515,1.6312528411243976
5beb38c9aec9ef0001e9c83d,20,medium,0.982,0.9825994190489465,0.25,1,16,200,constant,constant,2,2,1,23353,2026-02-22T07:35:55.270Z,1,23353,24.91764780853728,78.63496319607663,200.0237172626099,16.275574603288007,41.41730163928375,121.15087660954092,2.0691777433624807,82.37499706888882,4.423348469080031,4.805256974178538,5.298935761615437,2.849293631230113,3.747556336535357,0.7319724998642649
