subjectid,responseid,block,trial,stimulus,colormap,colorCategorization,vis,centerPerturb,noisePerturb,noisePerturbCount,noiseAmplitude,correct,modelChoice,selectedCanvas,responseTime,generationTime
1287,56687,3,1,19,jet,793.453,fieldSmooth,0.098716,1.9,1,1.1,1,1,4,21884,603
1287,56688,3,2,20,jet,793.453,fieldSmooth,0.098716,1.9,1,1.1,1,1,1,19593,517
1287,56689,3,3,21,jet,793.453,fieldSmooth,0.098716,1.9,1,1.1,1,2,4,16937,536
1287,56690,3,4,22,jet,793.453,fieldSmooth,0.098716,1.9,1,1.1,1,1,4,6829,515
1287,56691,3,5,23,jet,793.453,fieldSmooth,0.098716,1.9,1,1.1,1,1,3,5165,535
1287,56692,3,6,24,jet,793.453,fieldSmooth,0.098716,1.9,1,1.1,1,1,3,11516,503
1287,56693,3,7,25,jet,793.453,fieldSmooth,0.098716,1.9,1,1.1,1,1,6,5311,558
1287,56694,3,8,26,jet,793.453,fieldSmooth,0.098716,1.9,1,1.1,1,1,6,4611,510
1287,56695,3,9,27,jet,793.453,fieldSmooth,0.098716,1.9,1,1.1,1,1,1,13409,537
1287,56696,4,1,28,blue,148.302,fieldSmooth,0.098716,1.9,1,1.1,0,0,3,13588,514
1287,56697,4,2,29,blue,148.302,fieldSmooth,0.098716,1.9,1,1.1,1,2,2,17934,540
1287,56698,4,3,30,blue,148.302,fieldSmooth,0.098716,1.9,1,1.1,0,0,6,18220,517
1287,56699,4,4,31,blue,148.302,fieldSmooth,0.098716,1.9,1,1.1,1,1,2,5338,519
1287,56700,4,5,32,blue,148.302,fieldSmooth,0.098716,1.9,1,1.1,1,2,6,44614,538
1287,56701,4,6,33,blue,148.302,fieldSmooth,0.098716,1.9,1,1.1,1,2,5,11331,505
1287,56702,4,7,34,blue,148.302,fieldSmooth,0.098716,1.9,1,1.1,1,2,6,11153,562
1287,56703,4,8,35,blue,148.302,fieldSmooth,0.098716,1.9,1,1.1,1,2,2,18318,540
1287,56704,4,9,36,blue,148.302,fieldSmooth,0.098716,1.9,1,1.1,1,2,6,57543,540
1287,56669,1,1,1,viridis,409,fieldSmooth,0.098716,1.9,1,1.1,1,2,1,6401,545
1287,56670,1,2,2,viridis,409,fieldSmooth,0.098716,1.9,1,1.1,1,2,6,47839,519
1287,56671,1,3,3,viridis,409,fieldSmooth,0.098716,1.9,1,1.1,1,1,6,10335,546
1287,56672,1,4,4,viridis,409,fieldSmooth,0.098716,1.9,1,1.1,1,2,5,74441,499
1287,56673,1,5,5,viridis,409,fieldSmooth,0.098716,1.9,1,1.1,1,2,6,15648,552
1287,56674,1,6,6,viridis,409,fieldSmooth,0.098716,1.9,1,1.1,1,2,6,10314,544
1287,56675,1,7,7,viridis,409,fieldSmooth,0.098716,1.9,1,1.1,1,2,2,25306,575
1287,56676,1,8,8,viridis,409,fieldSmooth,0.098716,1.9,1,1.1,1,2,1,16928,543
1287,56677,1,9,9,viridis,409,fieldSmooth,0.098716,1.9,1,1.1,1,1,3,30417,505
1287,56678,2,1,10,blue-orange,499.941,fieldSmooth,0.098716,1.9,1,1.1,0,0,5,30754,618
1287,56679,2,2,11,blue-orange,499.941,fieldSmooth,0.098716,1.9,1,1.1,0,0,5,7585,536
1287,56680,2,3,12,blue-orange,499.941,fieldSmooth,0.098716,1.9,1,1.1,1,1,1,9329,503
1287,56681,2,4,13,blue-orange,499.941,fieldSmooth,0.098716,1.9,1,1.1,1,1,2,20900,541
1287,56682,2,5,14,blue-orange,499.941,fieldSmooth,0.098716,1.9,1,1.1,1,2,1,25567,516
1287,56683,2,6,15,blue-orange,499.941,fieldSmooth,0.098716,1.9,1,1.1,1,1,3,33759,511
1287,56684,2,7,16,blue-orange,499.941,fieldSmooth,0.098716,1.9,1,1.1,1,1,2,25252,518
1287,56685,2,8,17,blue-orange,499.941,fieldSmooth,0.098716,1.9,1,1.1,1,1,4,16591,538
1287,56686,2,9,18,blue-orange,499.941,fieldSmooth,0.098716,1.9,1,1.1,1,1,6,8445,533
1288,57074,2,1,10,jet,793.453,fieldSmooth,0.098716,1.9,1,1.1,1,1,2,5942,409
1288,57075,2,2,11,jet,793.453,fieldSmooth,0.098716,1.9,1,1.1,1,1,4,15753,399
1288,57076,2,3,12,jet,793.453,fieldSmooth,0.098716,1.9,1,1.1,1,1,5,13562,471
1288,57077,2,4,13,jet,793.453,fieldSmooth,0.098716,1.9,1,1.1,1,1,4,107393,417
1288,57078,2,5,14,jet,793.453,fieldSmooth,0.098716,1.9,1,1.1,1,1,1,7314,434
1288,57079,2,6,15,jet,793.453,fieldSmooth,0.098716,1.9,1,1.1,1,1,1,117395,428
1288,57080,2,7,16,jet,793.453,fieldSmooth,0.098716,1.9,1,1.1,1,1,4,22069,426
1288,57081,2,8,17,jet,793.453,fieldSmooth,0.098716,1.9,1,1.1,1,1,2,114392,488
1288,57082,2,9,18,jet,793.453,fieldSmooth,0.098716,1.9,1,1.1,1,1,6,22626,433
1288,57083,3,1,19,blue,148.302,fieldSmooth,0.098716,1.9,1,1.1,1,2,1,87169,454
1288,57084,3,2,20,blue,148.302,fieldSmooth,0.098716,1.9,1,1.1,1,2,4,13647,417
1288,57085,3,3,21,blue,148.302,fieldSmooth,0.098716,1.9,1,1.1,1,2,1,283650,440
1288,57086,3,4,22,blue,148.302,fieldSmooth,0.098716,1.9,1,1.1,1,2,6,55697,439
1288,57087,3,5,23,blue,148.302,fieldSmooth,0.098716,1.9,1,1.1,1,2,2,131550,438
1288,57088,3,6,24,blue,148.302,fieldSmooth,0.098716,1.9,1,1.1,1,2,3,6570,434
1288,57089,3,7,25,blue,148.302,fieldSmooth,0.098716,1.9,1,1.1,1,1,4,43301,440
1288,57090,3,8,26,blue,148.302,fieldSmooth,0.098716,1.9,1,1.1,1,2,6,47499,403
1288,57091,3,9,27,blue,148.302,fieldSmooth,0.098716,1.9,1,1.1,1,1,6,193358,436
1288,57065,1,1,1,viridis,409,fieldSmooth,0.098716,1.9,1,1.1,1,2,6,23378,1429
1288,57066,1,2,2,viridis,409,fieldSmooth,0.098716,1.9,1,1.1,1,1,4,14315,468
1288,57067,1,3,3,viridis,409,fieldSmooth,0.098716,1.9,1,1.1,1,1,6,77529,400
1288,57068,1,4,4,viridis,409,fieldSmooth,0.098716,1.9,1,1.1,1,1,2,42578,417
1288,57069,1,5,5,viridis,409,fieldSmooth,0.098716,1.9,1,1.1,1,1,5,13108,426
1288,57070,1,6,6,viridis,409,fieldSmooth,0.098716,1.9,1,1.1,0,0,5,52531,428
1288,57071,1,7,7,viridis,409,fieldSmooth,0.098716,1.9,1,1.1,1,2,6,11898,399
1288,57072,1,8,8,viridis,409,fieldSmooth,0.098716,1.9,1,1.1,1,1,5,28073,431
1288,57073,1,9,9,viridis,409,fieldSmooth,0.098716,1.9,1,1.1,1,2,3,43910,444
1288,57092,4,1,28,blue-orange,499.941,fieldSmooth,0.098716,1.9,1,1.1,1,2,4,18257,440
1288,57093,4,2,29,blue-orange,499.941,fieldSmooth,0.098716,1.9,1,1.1,1,1,2,16254,433
1288,57094,4,3,30,blue-orange,499.941,fieldSmooth,0.098716,1.9,1,1.1,1,1,6,15404,415
1288,57095,4,4,31,blue-orange,499.941,fieldSmooth,0.098716,1.9,1,1.1,1,1,6,64181,404
1288,57096,4,5,32,blue-orange,499.941,fieldSmooth,0.098716,1.9,1,1.1,1,1,4,23854,447
1288,57097,4,6,33,blue-orange,499.941,fieldSmooth,0.098716,1.9,1,1.1,1,2,6,56092,488
1288,57098,4,7,34,blue-orange,499.941,fieldSmooth,0.098716,1.9,1,1.1,1,1,5,22793,422
1288,57099,4,8,35,blue-orange,499.941,fieldSmooth,0.098716,1.9,1,1.1,1,1,2,76161,421
1288,57100,4,9,36,blue-orange,499.941,fieldSmooth,0.098716,1.9,1,1.1,1,1,6,63927,464
1289,56507,3,1,19,jet,793.453,fieldSmooth,0.098716,1.9,1,1.1,1,1,2,15070,881
1289,56508,3,2,20,jet,793.453,fieldSmooth,0.098716,1.9,1,1.1,1,1,1,12376,873
1289,56509,3,3,21,jet,793.453,fieldSmooth,0.098716,1.9,1,1.1,1,1,4,13464,921
1289,56510,3,4,22,jet,793.453,fieldSmooth,0.098716,1.9,1,1.1,1,1,4,20680,820
1289,56511,3,5,23,jet,793.453,fieldSmooth,0.098716,1.9,1,1.1,1,1,2,26508,908
1289,56512,3,6,24,jet,793.453,fieldSmooth,0.098716,1.9,1,1.1,1,1,4,15695,840
1289,56513,3,7,25,jet,793.453,fieldSmooth,0.098716,1.9,1,1.1,1,1,1,14599,845
1289,56514,3,8,26,jet,793.453,fieldSmooth,0.098716,1.9,1,1.1,1,1,3,17239,908
1289,56515,3,9,27,jet,793.453,fieldSmooth,0.098716,1.9,1,1.1,1,1,6,17897,879
1289,56516,4,1,28,blue,148.302,fieldSmooth,0.098716,1.9,1,1.1,0,0,5,8127,993
1289,56517,4,2,29,blue,148.302,fieldSmooth,0.098716,1.9,1,1.1,1,2,6,15661,854
1289,56518,4,3,30,blue,148.302,fieldSmooth,0.098716,1.9,1,1.1,0,0,4,10308,812
1289,56519,4,4,31,blue,148.302,fieldSmooth,0.098716,1.9,1,1.1,0,0,6,10990,794
1289,56520,4,5,32,blue,148.302,fieldSmooth,0.098716,1.9,1,1.1,1,1,1,8987,974
1289,56521,4,6,33,blue,148.302,fieldSmooth,0.098716,1.9,1,1.1,1,1,4,28625,782
1289,56522,4,7,34,blue,148.302,fieldSmooth,0.098716,1.9,1,1.1,1,1,4,7441,878
1289,56523,4,8,35,blue,148.302,fieldSmooth,0.098716,1.9,1,1.1,0,0,4,16474,791
1289,56524,4,9,36,blue,148.302,fieldSmooth,0.098716,1.9,1,1.1,1,1,4,10006,1195
1289,56489,1,1,1,viridis,409,fieldSmooth,0.098716,1.9,1,1.1,1,2,6,7233,861
1289,56490,1,2,2,viridis,409,fieldSmooth,0.098716,1.9,1,1.1,0,0,5,14025,888
1289,56491,1,3,3,viridis,409,fieldSmooth,0.098716,1.9,1,1.1,1,2,2,8975,820
1289,56492,1,4,4,viridis,409,fieldSmooth,0.098716,1.9,1,1.1,1,2,6,14094,982
1289,56493,1,5,5,viridis,409,fieldSmooth,0.098716,1.9,1,1.1,0,0,3,8473,773
1289,56494,1,6,6,viridis,409,fieldSmooth,0.098716,1.9,1,1.1,0,0,6,9489,803
1289,56495,1,7,7,viridis,409,fieldSmooth,0.098716,1.9,1,1.1,1,1,2,5292,796
1289,56496,1,8,8,viridis,409,fieldSmooth,0.098716,1.9,1,1.1,1,2,2,4649,787
1289,56497,1,9,9,viridis,409,fieldSmooth,0.098716,1.9,1,1.1,1,2,6,10616,879
1289,56498,2,1,10,blue-orange,499.941,fieldSmooth,0.098716,1.9,1,1.1,1,1,1,18138,848
1289,56499,2,2,11,blue-orange,499.941,fieldSmooth,0.098716,1.9,1,1.1,0,0,4,17923,916
1289,56500,2,3,12,blue-orange,499.941,fieldSmooth,0.098716,1.9,1,1.1,0,0,2,48098,969
1289,56501,2,4,13,blue-orange,499.941,fieldSmooth,0.098716,1.9,1,1.1,1,1,2,18270,1354
1289,56502,2,5,14,blue-orange,499.941,fieldSmooth,0.098716,1.9,1,1.1,0,0,4,15603,829
1289,56503,2,6,15,blue-orange,499.941,fieldSmooth,0.098716,1.9,1,1.1,0,0,3,15694,878
1289,56504,2,7,16,blue-orange,499.941,fieldSmooth,0.098716,1.9,1,1.1,1,1,6,9895,833
1289,56505,2,8,17,blue-orange,499.941,fieldSmooth,0.098716,1.9,1,1.1,0,0,2,15484,784
1289,56506,2,9,18,blue-orange,499.941,fieldSmooth,0.098716,1.9,1,1.1,1,1,1,14469,804
1291,56615,3,1,19,jet,793.453,fieldSmooth,0.098716,1.9,1,1.1,1,1,4,7520,355
1291,56616,3,2,20,jet,793.453,fieldSmooth,0.098716,1.9,1,1.1,1,1,2,13094,350
1291,56617,3,3,21,jet,793.453,fieldSmooth,0.098716,1.9,1,1.1,1,1,5,9957,351
1291,56618,3,4,22,jet,793.453,fieldSmooth,0.098716,1.9,1,1.1,1,1,2,9619,351
1291,56619,3,5,23,jet,793.453,fieldSmooth,0.098716,1.9,1,1.1,1,1,5,9300,352
1291,56620,3,6,24,jet,793.453,fieldSmooth,0.098716,1.9,1,1.1,1,1,1,7924,352
1291,56621,3,7,25,jet,793.453,fieldSmooth,0.098716,1.9,1,1.1,1,1,3,13062,350
1291,56622,3,8,26,jet,793.453,fieldSmooth,0.098716,1.9,1,1.1,1,1,4,6526,358
1291,56623,3,9,27,jet,793.453,fieldSmooth,0.098716,1.9,1,1.1,1,1,4,6180,351
1291,56606,2,1,10,blue,148.302,fieldSmooth,0.098716,1.9,1,1.1,1,2,3,68304,359
1291,56607,2,2,11,blue,148.302,fieldSmooth,0.098716,1.9,1,1.1,0,0,4,34418,354
1291,56608,2,3,12,blue,148.302,fieldSmooth,0.098716,1.9,1,1.1,1,2,5,35791,357
1291,56609,2,4,13,blue,148.302,fieldSmooth,0.098716,1.9,1,1.1,1,1,2,67390,358
1291,56610,2,5,14,blue,148.302,fieldSmooth,0.098716,1.9,1,1.1,1,1,1,6672,357
1291,56611,2,6,15,blue,148.302,fieldSmooth,0.098716,1.9,1,1.1,1,1,6,13427,353
1291,56612,2,7,16,blue,148.302,fieldSmooth,0.098716,1.9,1,1.1,1,2,4,11906,353
1291,56613,2,8,17,blue,148.302,fieldSmooth,0.098716,1.9,1,1.1,1,2,6,25357,359
1291,56614,2,9,18,blue,148.302,fieldSmooth,0.098716,1.9,1,1.1,1,2,4,10431,357
1291,56624,4,1,28,viridis,409,fieldSmooth,0.098716,1.9,1,1.1,1,1,2,13616,355
1291,56625,4,2,29,viridis,409,fieldSmooth,0.098716,1.9,1,1.1,1,1,6,11150,358
1291,56626,4,3,30,viridis,409,fieldSmooth,0.098716,1.9,1,1.1,0,0,3,30831,356
1291,56627,4,4,31,viridis,409,fieldSmooth,0.098716,1.9,1,1.1,1,1,3,11456,356
1291,56628,4,5,32,viridis,409,fieldSmooth,0.098716,1.9,1,1.1,1,2,5,22818,353
1291,56629,4,6,33,viridis,409,fieldSmooth,0.098716,1.9,1,1.1,1,2,2,14835,352
1291,56630,4,7,34,viridis,409,fieldSmooth,0.098716,1.9,1,1.1,1,1,3,32061,360
1291,56631,4,8,35,viridis,409,fieldSmooth,0.098716,1.9,1,1.1,1,2,2,23377,355
1291,56632,4,9,36,viridis,409,fieldSmooth,0.098716,1.9,1,1.1,1,1,5,15426,353
1291,56597,1,1,1,blue-orange,499.941,fieldSmooth,0.098716,1.9,1,1.1,1,1,4,14691,384
1291,56598,1,2,2,blue-orange,499.941,fieldSmooth,0.098716,1.9,1,1.1,1,1,3,20567,365
1291,56599,1,3,3,blue-orange,499.941,fieldSmooth,0.098716,1.9,1,1.1,1,1,4,28271,357
1291,56600,1,4,4,blue-orange,499.941,fieldSmooth,0.098716,1.9,1,1.1,1,1,2,5773,375
1291,56601,1,5,5,blue-orange,499.941,fieldSmooth,0.098716,1.9,1,1.1,1,1,2,4984,363
1291,56602,1,6,6,blue-orange,499.941,fieldSmooth,0.098716,1.9,1,1.1,1,1,2,5099,361
1291,56603,1,7,7,blue-orange,499.941,fieldSmooth,0.098716,1.9,1,1.1,1,1,2,9372,376
1291,56604,1,8,8,blue-orange,499.941,fieldSmooth,0.098716,1.9,1,1.1,1,1,3,27826,354
1291,56605,1,9,9,blue-orange,499.941,fieldSmooth,0.098716,1.9,1,1.1,1,1,6,4752,356
1293,56318,2,1,10,jet,793.453,fieldSmooth,0.098716,1.9,1,1.1,1,1,5,5302,306
1293,56319,2,2,11,jet,793.453,fieldSmooth,0.098716,1.9,1,1.1,1,1,2,4771,294
1293,56320,2,3,12,jet,793.453,fieldSmooth,0.098716,1.9,1,1.1,1,1,5,1603,297
1293,56321,2,4,13,jet,793.453,fieldSmooth,0.098716,1.9,1,1.1,1,1,5,4215,301
1293,56322,2,5,14,jet,793.453,fieldSmooth,0.098716,1.9,1,1.1,1,1,3,5380,295
1293,56323,2,6,15,jet,793.453,fieldSmooth,0.098716,1.9,1,1.1,1,1,5,8553,299
1293,56324,2,7,16,jet,793.453,fieldSmooth,0.098716,1.9,1,1.1,1,1,5,1987,304
1293,56325,2,8,17,jet,793.453,fieldSmooth,0.098716,1.9,1,1.1,0,0,1,9808,299
1293,56326,2,9,18,jet,793.453,fieldSmooth,0.098716,1.9,1,1.1,0,0,4,4763,303
1293,56327,3,1,19,blue,148.302,fieldSmooth,0.098716,1.9,1,1.1,0,0,6,4632,298
1293,56328,3,2,20,blue,148.302,fieldSmooth,0.098716,1.9,1,1.1,0,0,4,2658,298
1293,56329,3,3,21,blue,148.302,fieldSmooth,0.098716,1.9,1,1.1,0,0,6,8501,294
1293,56330,3,4,22,blue,148.302,fieldSmooth,0.098716,1.9,1,1.1,1,1,4,2030,295
1293,56331,3,5,23,blue,148.302,fieldSmooth,0.098716,1.9,1,1.1,1,1,1,3263,293
1293,56332,3,6,24,blue,148.302,fieldSmooth,0.098716,1.9,1,1.1,1,1,6,5587,289
1293,56333,3,7,25,blue,148.302,fieldSmooth,0.098716,1.9,1,1.1,1,1,4,5052,296
1293,56334,3,8,26,blue,148.302,fieldSmooth,0.098716,1.9,1,1.1,1,2,5,6495,301
1293,56335,3,9,27,blue,148.302,fieldSmooth,0.098716,1.9,1,1.1,1,2,6,6807,301
1293,56336,4,1,28,viridis,409,fieldSmooth,0.098716,1.9,1,1.1,1,1,5,2286,321
1293,56337,4,2,29,viridis,409,fieldSmooth,0.098716,1.9,1,1.1,0,0,2,5228,318
1293,56338,4,3,30,viridis,409,fieldSmooth,0.098716,1.9,1,1.1,0,0,5,4404,296
1293,56339,4,4,31,viridis,409,fieldSmooth,0.098716,1.9,1,1.1,1,2,4,3492,293
1293,56340,4,5,32,viridis,409,fieldSmooth,0.098716,1.9,1,1.1,1,1,2,4585,306
1293,56341,4,6,33,viridis,409,fieldSmooth,0.098716,1.9,1,1.1,0,0,1,3425,291
1293,56342,4,7,34,viridis,409,fieldSmooth,0.098716,1.9,1,1.1,1,1,4,4647,299
1293,56343,4,8,35,viridis,409,fieldSmooth,0.098716,1.9,1,1.1,0,0,1,2975,292
1293,56344,4,9,36,viridis,409,fieldSmooth,0.098716,1.9,1,1.1,1,1,3,4597,293
1293,56309,1,1,1,blue-orange,499.941,fieldSmooth,0.098716,1.9,1,1.1,1,1,1,5005,332
1293,56310,1,2,2,blue-orange,499.941,fieldSmooth,0.098716,1.9,1,1.1,1,1,1,6648,321
1293,56311,1,3,3,blue-orange,499.941,fieldSmooth,0.098716,1.9,1,1.1,0,0,4,4252,303
1293,56312,1,4,4,blue-orange,499.941,fieldSmooth,0.098716,1.9,1,1.1,1,1,6,6385,292
1293,56313,1,5,5,blue-orange,499.941,fieldSmooth,0.098716,1.9,1,1.1,1,1,1,2911,300
1293,56314,1,6,6,blue-orange,499.941,fieldSmooth,0.098716,1.9,1,1.1,1,1,5,3098,298
1293,56315,1,7,7,blue-orange,499.941,fieldSmooth,0.098716,1.9,1,1.1,1,2,5,5357,293
1293,56316,1,8,8,blue-orange,499.941,fieldSmooth,0.098716,1.9,1,1.1,1,1,3,5872,300
1293,56317,1,9,9,blue-orange,499.941,fieldSmooth,0.098716,1.9,1,1.1,0,0,3,9401,297
1294,56885,1,1,1,jet,793.453,fieldSmooth,0.098716,1.9,1,1.1,0,0,2,2376,650
1294,56886,1,2,2,jet,793.453,fieldSmooth,0.098716,1.9,1,1.1,1,1,2,1280,610
1294,56887,1,3,3,jet,793.453,fieldSmooth,0.098716,1.9,1,1.1,0,0,2,1250,602
1294,56888,1,4,4,jet,793.453,fieldSmooth,0.098716,1.9,1,1.1,0,0,2,970,595
1294,56889,1,5,5,jet,793.453,fieldSmooth,0.098716,1.9,1,1.1,0,0,2,812,608
1294,56890,1,6,6,jet,793.453,fieldSmooth,0.098716,1.9,1,1.1,0,0,2,970,593
1294,56891,1,7,7,jet,793.453,fieldSmooth,0.098716,1.9,1,1.1,0,0,2,979,591
1294,56892,1,8,8,jet,793.453,fieldSmooth,0.098716,1.9,1,1.1,1,1,2,1842,594
1294,56893,1,9,9,jet,793.453,fieldSmooth,0.098716,1.9,1,1.1,1,2,2,1323,592
1294,56912,4,1,28,blue,148.302,fieldSmooth,0.098716,1.9,1,1.1,0,0,1,42582,601
1294,56913,4,2,29,blue,148.302,fieldSmooth,0.098716,1.9,1,1.1,0,0,4,2715,598
1294,56914,4,3,30,blue,148.302,fieldSmooth,0.098716,1.9,1,1.1,0,0,1,2995,602
1294,56915,4,4,31,blue,148.302,fieldSmooth,0.098716,1.9,1,1.1,0,0,6,1869,586
1294,56916,4,5,32,blue,148.302,fieldSmooth,0.098716,1.9,1,1.1,1,1,1,3676,593
1294,56917,4,6,33,blue,148.302,fieldSmooth,0.098716,1.9,1,1.1,1,1,3,2742,586
1294,56918,4,7,34,blue,148.302,fieldSmooth,0.098716,1.9,1,1.1,0,0,2,2395,594
1294,56919,4,8,35,blue,148.302,fieldSmooth,0.098716,1.9,1,1.1,1,1,1,1392,600
1294,56920,4,9,36,blue,148.302,fieldSmooth,0.098716,1.9,1,1.1,1,1,3,1767,593
1294,56894,2,1,10,viridis,409,fieldSmooth,0.098716,1.9,1,1.1,0,0,3,5978,608
1294,56895,2,2,11,viridis,409,fieldSmooth,0.098716,1.9,1,1.1,0,0,1,2475,639
1294,56896,2,3,12,viridis,409,fieldSmooth,0.098716,1.9,1,1.1,0,0,6,4857,618
1294,56897,2,4,13,viridis,409,fieldSmooth,0.098716,1.9,1,1.1,0,0,6,2282,615
1294,56898,2,5,14,viridis,409,fieldSmooth,0.098716,1.9,1,1.1,0,0,5,5047,595
1294,56899,2,6,15,viridis,409,fieldSmooth,0.098716,1.9,1,1.1,1,2,4,5615,597
1294,56900,2,7,16,viridis,409,fieldSmooth,0.098716,1.9,1,1.1,0,0,1,1867,600
1294,56901,2,8,17,viridis,409,fieldSmooth,0.098716,1.9,1,1.1,0,0,6,3017,595
1294,56902,2,9,18,viridis,409,fieldSmooth,0.098716,1.9,1,1.1,0,0,1,2624,595
1294,56903,3,1,19,blue-orange,499.941,fieldSmooth,0.098716,1.9,1,1.1,0,0,6,11956,599
1294,56904,3,2,20,blue-orange,499.941,fieldSmooth,0.098716,1.9,1,1.1,1,1,6,5692,592
1294,56905,3,3,21,blue-orange,499.941,fieldSmooth,0.098716,1.9,1,1.1,0,0,5,1808,590
1294,56906,3,4,22,blue-orange,499.941,fieldSmooth,0.098716,1.9,1,1.1,0,0,1,7974,594
1294,56907,3,5,23,blue-orange,499.941,fieldSmooth,0.098716,1.9,1,1.1,0,0,1,5863,593
1294,56908,3,6,24,blue-orange,499.941,fieldSmooth,0.098716,1.9,1,1.1,1,2,2,3770,603
1294,56909,3,7,25,blue-orange,499.941,fieldSmooth,0.098716,1.9,1,1.1,1,1,2,9602,588
1294,56910,3,8,26,blue-orange,499.941,fieldSmooth,0.098716,1.9,1,1.1,0,0,2,4063,594
1294,56911,3,9,27,blue-orange,499.941,fieldSmooth,0.098716,1.9,1,1.1,0,0,3,8770,592
1296,56471,3,1,19,jet,793.453,fieldSmooth,0.098716,1.9,1,1.1,0,0,3,10332,1019
1296,56472,3,2,20,jet,793.453,fieldSmooth,0.098716,1.9,1,1.1,1,1,4,8206,981
1296,56473,3,3,21,jet,793.453,fieldSmooth,0.098716,1.9,1,1.1,1,1,6,11828,2295
1296,56474,3,4,22,jet,793.453,fieldSmooth,0.098716,1.9,1,1.1,0,0,6,10071,960
1296,56475,3,5,23,jet,793.453,fieldSmooth,0.098716,1.9,1,1.1,1,1,2,2031,1107
1296,56476,3,6,24,jet,793.453,fieldSmooth,0.098716,1.9,1,1.1,1,1,4,7393,1080
1296,56477,3,7,25,jet,793.453,fieldSmooth,0.098716,1.9,1,1.1,1,1,2,20846,1009
1296,56478,3,8,26,jet,793.453,fieldSmooth,0.098716,1.9,1,1.1,1,1,1,4878,996
1296,56479,3,9,27,jet,793.453,fieldSmooth,0.098716,1.9,1,1.1,1,1,6,4493,966
1296,56462,2,1,10,blue,148.302,fieldSmooth,0.098716,1.9,1,1.1,0,0,6,5710,1092
1296,56463,2,2,11,blue,148.302,fieldSmooth,0.098716,1.9,1,1.1,1,1,3,16210,1130
1296,56464,2,3,12,blue,148.302,fieldSmooth,0.098716,1.9,1,1.1,1,2,6,6426,1086
1296,56465,2,4,13,blue,148.302,fieldSmooth,0.098716,1.9,1,1.1,1,1,4,5877,975
1296,56466,2,5,14,blue,148.302,fieldSmooth,0.098716,1.9,1,1.1,0,0,6,21910,1093
1296,56467,2,6,15,blue,148.302,fieldSmooth,0.098716,1.9,1,1.1,1,2,4,7739,1028
1296,56468,2,7,16,blue,148.302,fieldSmooth,0.098716,1.9,1,1.1,1,2,4,6396,1006
1296,56469,2,8,17,blue,148.302,fieldSmooth,0.098716,1.9,1,1.1,1,1,6,7107,1116
1296,56470,2,9,18,blue,148.302,fieldSmooth,0.098716,1.9,1,1.1,0,0,6,20482,1040
1296,56480,4,1,28,viridis,409,fieldSmooth,0.098716,1.9,1,1.1,1,1,1,7122,1042
1296,56481,4,2,29,viridis,409,fieldSmooth,0.098716,1.9,1,1.1,1,1,4,21357,1022
1296,56482,4,3,30,viridis,409,fieldSmooth,0.098716,1.9,1,1.1,1,1,3,8130,1098
1296,56483,4,4,31,viridis,409,fieldSmooth,0.098716,1.9,1,1.1,1,1,3,5320,1035
1296,56484,4,5,32,viridis,409,fieldSmooth,0.098716,1.9,1,1.1,1,1,1,3986,1041
1296,56485,4,6,33,viridis,409,fieldSmooth,0.098716,1.9,1,1.1,0,0,1,11561,1151
1296,56486,4,7,34,viridis,409,fieldSmooth,0.098716,1.9,1,1.1,1,1,6,10709,1107
1296,56487,4,8,35,viridis,409,fieldSmooth,0.098716,1.9,1,1.1,1,1,1,19026,982
1296,56488,4,9,36,viridis,409,fieldSmooth,0.098716,1.9,1,1.1,1,1,6,9837,1224
1296,56453,1,1,1,blue-orange,499.941,fieldSmooth,0.098716,1.9,1,1.1,1,1,5,3252,971
1296,56454,1,2,2,blue-orange,499.941,fieldSmooth,0.098716,1.9,1,1.1,1,1,6,5669,1047
1296,56455,1,3,3,blue-orange,499.941,fieldSmooth,0.098716,1.9,1,1.1,1,2,4,10532,1241
1296,56456,1,4,4,blue-orange,499.941,fieldSmooth,0.098716,1.9,1,1.1,1,1,6,5939,890
1296,56457,1,5,5,blue-orange,499.941,fieldSmooth,0.098716,1.9,1,1.1,1,1,3,15374,1016
1296,56458,1,6,6,blue-orange,499.941,fieldSmooth,0.098716,1.9,1,1.1,1,1,1,7282,1010
1296,56459,1,7,7,blue-orange,499.941,fieldSmooth,0.098716,1.9,1,1.1,1,1,4,8033,979
1296,56460,1,8,8,blue-orange,499.941,fieldSmooth,0.098716,1.9,1,1.1,1,2,3,11512,1040
1296,56461,1,9,9,blue-orange,499.941,fieldSmooth,0.098716,1.9,1,1.1,0,0,3,18544,965
1299,56588,4,1,28,jet,793.453,fieldSmooth,0.098716,1.9,1,1.1,1,2,6,12812,708
1299,56589,4,2,29,jet,793.453,fieldSmooth,0.098716,1.9,1,1.1,1,1,1,47528,630
1299,56590,4,3,30,jet,793.453,fieldSmooth,0.098716,1.9,1,1.1,1,1,6,2884,587
1299,56591,4,4,31,jet,793.453,fieldSmooth,0.098716,1.9,1,1.1,1,1,6,4689,579
1299,56592,4,5,32,jet,793.453,fieldSmooth,0.098716,1.9,1,1.1,1,1,5,25714,563
1299,56593,4,6,33,jet,793.453,fieldSmooth,0.098716,1.9,1,1.1,1,1,2,5744,577
1299,56594,4,7,34,jet,793.453,fieldSmooth,0.098716,1.9,1,1.1,1,2,6,5590,563
1299,56595,4,8,35,jet,793.453,fieldSmooth,0.098716,1.9,1,1.1,1,2,4,53995,562
1299,56596,4,9,36,jet,793.453,fieldSmooth,0.098716,1.9,1,1.1,1,1,5,11424,600
1299,56570,2,1,10,blue,148.302,fieldSmooth,0.098716,1.9,1,1.1,0,0,4,5019,555
1299,56571,2,2,11,blue,148.302,fieldSmooth,0.098716,1.9,1,1.1,0,0,2,7956,558
1299,56572,2,3,12,blue,148.302,fieldSmooth,0.098716,1.9,1,1.1,0,0,6,33393,640
1299,56573,2,4,13,blue,148.302,fieldSmooth,0.098716,1.9,1,1.1,0,0,1,5561,602
1299,56574,2,5,14,blue,148.302,fieldSmooth,0.098716,1.9,1,1.1,1,1,3,10999,585
1299,56575,2,6,15,blue,148.302,fieldSmooth,0.098716,1.9,1,1.1,1,2,3,8991,592
1299,56576,2,7,16,blue,148.302,fieldSmooth,0.098716,1.9,1,1.1,0,0,4,46716,594
1299,56577,2,8,17,blue,148.302,fieldSmooth,0.098716,1.9,1,1.1,1,2,1,12586,597
1299,56578,2,9,18,blue,148.302,fieldSmooth,0.098716,1.9,1,1.1,1,1,4,13274,580
1299,56561,1,1,1,viridis,409,fieldSmooth,0.098716,1.9,1,1.1,0,0,5,4820,615
1299,56562,1,2,2,viridis,409,fieldSmooth,0.098716,1.9,1,1.1,1,2,2,10207,614
1299,56563,1,3,3,viridis,409,fieldSmooth,0.098716,1.9,1,1.1,1,1,1,4536,579
1299,56564,1,4,4,viridis,409,fieldSmooth,0.098716,1.9,1,1.1,1,1,6,7778,573
1299,56565,1,5,5,viridis,409,fieldSmooth,0.098716,1.9,1,1.1,1,1,2,3376,740
1299,56566,1,6,6,viridis,409,fieldSmooth,0.098716,1.9,1,1.1,1,1,6,3212,568
1299,56567,1,7,7,viridis,409,fieldSmooth,0.098716,1.9,1,1.1,1,1,4,4104,595
1299,56568,1,8,8,viridis,409,fieldSmooth,0.098716,1.9,1,1.1,1,1,2,6312,558
1299,56569,1,9,9,viridis,409,fieldSmooth,0.098716,1.9,1,1.1,0,0,6,12850,539
1299,56579,3,1,19,blue-orange,499.941,fieldSmooth,0.098716,1.9,1,1.1,1,1,6,5631,571
1299,56580,3,2,20,blue-orange,499.941,fieldSmooth,0.098716,1.9,1,1.1,1,1,2,7169,598
1299,56581,3,3,21,blue-orange,499.941,fieldSmooth,0.098716,1.9,1,1.1,1,1,5,9337,567
1299,56582,3,4,22,blue-orange,499.941,fieldSmooth,0.098716,1.9,1,1.1,1,1,2,4653,567
1299,56583,3,5,23,blue-orange,499.941,fieldSmooth,0.098716,1.9,1,1.1,1,1,4,9492,576
1299,56584,3,6,24,blue-orange,499.941,fieldSmooth,0.098716,1.9,1,1.1,1,1,5,2767,568
1299,56585,3,7,25,blue-orange,499.941,fieldSmooth,0.098716,1.9,1,1.1,0,0,5,22318,578
1299,56586,3,8,26,blue-orange,499.941,fieldSmooth,0.098716,1.9,1,1.1,1,2,5,14107,625
1299,56587,3,9,27,blue-orange,499.941,fieldSmooth,0.098716,1.9,1,1.1,1,1,4,30478,610
1300,56552,4,1,28,jet,793.453,fieldSmooth,0.098716,1.9,1,1.1,0,0,4,9935,496
1300,56553,4,2,29,jet,793.453,fieldSmooth,0.098716,1.9,1,1.1,0,0,4,3677,476
1300,56554,4,3,30,jet,793.453,fieldSmooth,0.098716,1.9,1,1.1,0,0,5,6258,441
1300,56555,4,4,31,jet,793.453,fieldSmooth,0.098716,1.9,1,1.1,1,1,3,4362,475
1300,56556,4,5,32,jet,793.453,fieldSmooth,0.098716,1.9,1,1.1,1,1,6,4503,480
1300,56557,4,6,33,jet,793.453,fieldSmooth,0.098716,1.9,1,1.1,0,0,3,8334,458
1300,56558,4,7,34,jet,793.453,fieldSmooth,0.098716,1.9,1,1.1,1,1,5,6944,451
1300,56559,4,8,35,jet,793.453,fieldSmooth,0.098716,1.9,1,1.1,0,0,6,4855,457
1300,56560,4,9,36,jet,793.453,fieldSmooth,0.098716,1.9,1,1.1,1,1,2,4989,450
1300,56534,2,1,10,blue,148.302,fieldSmooth,0.098716,1.9,1,1.1,0,0,1,4469,452
1300,56535,2,2,11,blue,148.302,fieldSmooth,0.098716,1.9,1,1.1,0,0,6,2660,454
1300,56536,2,3,12,blue,148.302,fieldSmooth,0.098716,1.9,1,1.1,0,0,4,8511,472
1300,56537,2,4,13,blue,148.302,fieldSmooth,0.098716,1.9,1,1.1,1,1,6,5683,472
1300,56538,2,5,14,blue,148.302,fieldSmooth,0.098716,1.9,1,1.1,0,0,4,3344,477
1300,56539,2,6,15,blue,148.302,fieldSmooth,0.098716,1.9,1,1.1,1,1,2,3804,437
1300,56540,2,7,16,blue,148.302,fieldSmooth,0.098716,1.9,1,1.1,0,0,1,3761,446
1300,56541,2,8,17,blue,148.302,fieldSmooth,0.098716,1.9,1,1.1,0,0,6,4992,472
1300,56542,2,9,18,blue,148.302,fieldSmooth,0.098716,1.9,1,1.1,1,1,5,4372,484
1300,56525,1,1,1,viridis,409,fieldSmooth,0.098716,1.9,1,1.1,1,1,4,8240,489
1300,56526,1,2,2,viridis,409,fieldSmooth,0.098716,1.9,1,1.1,1,1,6,3975,493
1300,56527,1,3,3,viridis,409,fieldSmooth,0.098716,1.9,1,1.1,1,2,1,3855,460
1300,56528,1,4,4,viridis,409,fieldSmooth,0.098716,1.9,1,1.1,0,0,1,5931,438
1300,56529,1,5,5,viridis,409,fieldSmooth,0.098716,1.9,1,1.1,1,2,5,4459,484
1300,56530,1,6,6,viridis,409,fieldSmooth,0.098716,1.9,1,1.1,1,1,5,7745,487
1300,56531,1,7,7,viridis,409,fieldSmooth,0.098716,1.9,1,1.1,0,0,3,3836,524
1300,56532,1,8,8,viridis,409,fieldSmooth,0.098716,1.9,1,1.1,1,1,2,4346,459
1300,56533,1,9,9,viridis,409,fieldSmooth,0.098716,1.9,1,1.1,1,1,6,5192,468
1300,56543,3,1,19,blue-orange,499.941,fieldSmooth,0.098716,1.9,1,1.1,1,1,5,9750,460
1300,56544,3,2,20,blue-orange,499.941,fieldSmooth,0.098716,1.9,1,1.1,1,1,3,6796,484
1300,56545,3,3,21,blue-orange,499.941,fieldSmooth,0.098716,1.9,1,1.1,1,1,4,5222,448
1300,56546,3,4,22,blue-orange,499.941,fieldSmooth,0.098716,1.9,1,1.1,0,0,3,13564,476
1300,56547,3,5,23,blue-orange,499.941,fieldSmooth,0.098716,1.9,1,1.1,1,1,5,7614,455
1300,56548,3,6,24,blue-orange,499.941,fieldSmooth,0.098716,1.9,1,1.1,1,1,3,8158,456
1300,56549,3,7,25,blue-orange,499.941,fieldSmooth,0.098716,1.9,1,1.1,1,1,5,3162,432
1300,56550,3,8,26,blue-orange,499.941,fieldSmooth,0.098716,1.9,1,1.1,1,1,6,8821,456
1300,56551,3,9,27,blue-orange,499.941,fieldSmooth,0.098716,1.9,1,1.1,0,0,6,8959,469
1304,56840,4,1,28,jet,793.453,fieldSmooth,0.098716,1.9,1,1.1,0,0,3,2748,592
1304,56841,4,2,29,jet,793.453,fieldSmooth,0.098716,1.9,1,1.1,1,1,3,4321,627
1304,56842,4,3,30,jet,793.453,fieldSmooth,0.098716,1.9,1,1.1,0,0,3,4578,586
1304,56843,4,4,31,jet,793.453,fieldSmooth,0.098716,1.9,1,1.1,0,0,4,5726,590
1304,56844,4,5,32,jet,793.453,fieldSmooth,0.098716,1.9,1,1.1,0,0,1,9804,591
1304,56845,4,6,33,jet,793.453,fieldSmooth,0.098716,1.9,1,1.1,1,1,5,8488,595
1304,56846,4,7,34,jet,793.453,fieldSmooth,0.098716,1.9,1,1.1,0,0,1,1841,595
1304,56847,4,8,35,jet,793.453,fieldSmooth,0.098716,1.9,1,1.1,1,2,1,3249,595
1304,56848,4,9,36,jet,793.453,fieldSmooth,0.098716,1.9,1,1.1,0,0,6,13532,593
1304,56813,1,1,1,blue,148.302,fieldSmooth,0.098716,1.9,1,1.1,0,0,3,3833,1328
1304,56814,1,2,2,blue,148.302,fieldSmooth,0.098716,1.9,1,1.1,0,0,2,5040,642
1304,56815,1,3,3,blue,148.302,fieldSmooth,0.098716,1.9,1,1.1,1,1,1,2349,597
1304,56816,1,4,4,blue,148.302,fieldSmooth,0.098716,1.9,1,1.1,0,0,1,2584,595
1304,56817,1,5,5,blue,148.302,fieldSmooth,0.098716,1.9,1,1.1,0,0,1,2374,595
1304,56818,1,6,6,blue,148.302,fieldSmooth,0.098716,1.9,1,1.1,1,1,2,4399,597
1304,56819,1,7,7,blue,148.302,fieldSmooth,0.098716,1.9,1,1.1,0,0,3,2704,586
1304,56820,1,8,8,blue,148.302,fieldSmooth,0.098716,1.9,1,1.1,1,1,1,1369,596
1304,56821,1,9,9,blue,148.302,fieldSmooth,0.098716,1.9,1,1.1,1,1,1,9134,588
1304,56822,2,1,10,viridis,409,fieldSmooth,0.098716,1.9,1,1.1,0,0,3,2764,613
1304,56823,2,2,11,viridis,409,fieldSmooth,0.098716,1.9,1,1.1,0,0,3,2389,589
1304,56824,2,3,12,viridis,409,fieldSmooth,0.098716,1.9,1,1.1,0,0,1,29386,593
1304,56825,2,4,13,viridis,409,fieldSmooth,0.098716,1.9,1,1.1,0,0,2,3073,594
1304,56826,2,5,14,viridis,409,fieldSmooth,0.098716,1.9,1,1.1,0,0,3,3840,586
1304,56827,2,6,15,viridis,409,fieldSmooth,0.098716,1.9,1,1.1,0,0,3,6396,592
1304,56828,2,7,16,viridis,409,fieldSmooth,0.098716,1.9,1,1.1,1,1,3,1709,591
1304,56829,2,8,17,viridis,409,fieldSmooth,0.098716,1.9,1,1.1,0,0,3,1824,597
1304,56830,2,9,18,viridis,409,fieldSmooth,0.098716,1.9,1,1.1,0,0,3,1885,590
1304,56831,3,1,19,blue-orange,499.941,fieldSmooth,0.098716,1.9,1,1.1,1,1,6,3004,598
1304,56832,3,2,20,blue-orange,499.941,fieldSmooth,0.098716,1.9,1,1.1,0,0,6,5800,603
1304,56833,3,3,21,blue-orange,499.941,fieldSmooth,0.098716,1.9,1,1.1,0,0,1,12094,613
1304,56834,3,4,22,blue-orange,499.941,fieldSmooth,0.098716,1.9,1,1.1,1,1,3,2076,591
1304,56835,3,5,23,blue-orange,499.941,fieldSmooth,0.098716,1.9,1,1.1,0,0,3,3084,590
1304,56836,3,6,24,blue-orange,499.941,fieldSmooth,0.098716,1.9,1,1.1,0,0,5,4672,596
1304,56837,3,7,25,blue-orange,499.941,fieldSmooth,0.098716,1.9,1,1.1,0,0,1,2651,600
1304,56838,3,8,26,blue-orange,499.941,fieldSmooth,0.098716,1.9,1,1.1,1,2,6,4458,594
1304,56839,3,9,27,blue-orange,499.941,fieldSmooth,0.098716,1.9,1,1.1,0,0,6,3404,584
1306,56741,1,1,1,jet,793.453,fieldSmooth,0.098716,1.9,1,1.1,1,1,1,3872,620
1306,56742,1,2,2,jet,793.453,fieldSmooth,0.098716,1.9,1,1.1,1,1,4,12424,689
1306,56743,1,3,3,jet,793.453,fieldSmooth,0.098716,1.9,1,1.1,1,1,4,3206,511
1306,56744,1,4,4,jet,793.453,fieldSmooth,0.098716,1.9,1,1.1,1,1,1,7074,524
1306,56745,1,5,5,jet,793.453,fieldSmooth,0.098716,1.9,1,1.1,1,1,4,3551,564
1306,56746,1,6,6,jet,793.453,fieldSmooth,0.098716,1.9,1,1.1,1,2,5,6705,566
1306,56747,1,7,7,jet,793.453,fieldSmooth,0.098716,1.9,1,1.1,0,0,6,14524,586
1306,56748,1,8,8,jet,793.453,fieldSmooth,0.098716,1.9,1,1.1,0,0,4,5565,608
1306,56749,1,9,9,jet,793.453,fieldSmooth,0.098716,1.9,1,1.1,1,1,2,8911,529
1306,56759,3,1,19,blue,148.302,fieldSmooth,0.098716,1.9,1,1.1,1,2,4,6224,568
1306,56760,3,2,20,blue,148.302,fieldSmooth,0.098716,1.9,1,1.1,1,1,6,14581,580
1306,56761,3,3,21,blue,148.302,fieldSmooth,0.098716,1.9,1,1.1,1,2,3,10055,622
1306,56762,3,4,22,blue,148.302,fieldSmooth,0.098716,1.9,1,1.1,1,2,4,10915,574
1306,56763,3,5,23,blue,148.302,fieldSmooth,0.098716,1.9,1,1.1,1,2,1,6207,624
1306,56764,3,6,24,blue,148.302,fieldSmooth,0.098716,1.9,1,1.1,1,2,5,13704,551
1306,56765,3,7,25,blue,148.302,fieldSmooth,0.098716,1.9,1,1.1,1,2,2,6854,562
1306,56766,3,8,26,blue,148.302,fieldSmooth,0.098716,1.9,1,1.1,1,2,6,7330,549
1306,56767,3,9,27,blue,148.302,fieldSmooth,0.098716,1.9,1,1.1,1,2,2,18128,588
1306,56768,4,1,28,viridis,409,fieldSmooth,0.098716,1.9,1,1.1,1,2,5,13047,588
1306,56769,4,2,29,viridis,409,fieldSmooth,0.098716,1.9,1,1.1,0,0,3,14884,560
1306,56770,4,3,30,viridis,409,fieldSmooth,0.098716,1.9,1,1.1,0,0,6,3790,433
1306,56771,4,4,31,viridis,409,fieldSmooth,0.098716,1.9,1,1.1,0,0,1,19123,468
1306,56772,4,5,32,viridis,409,fieldSmooth,0.098716,1.9,1,1.1,1,2,3,5334,601
1306,56773,4,6,33,viridis,409,fieldSmooth,0.098716,1.9,1,1.1,1,2,6,23773,611
1306,56774,4,7,34,viridis,409,fieldSmooth,0.098716,1.9,1,1.1,1,2,4,9495,485
1306,56775,4,8,35,viridis,409,fieldSmooth,0.098716,1.9,1,1.1,0,0,3,18111,546
1306,56776,4,9,36,viridis,409,fieldSmooth,0.098716,1.9,1,1.1,1,2,2,4444,579
1306,56750,2,1,10,blue-orange,499.941,fieldSmooth,0.098716,1.9,1,1.1,1,1,1,4371,462
1306,56751,2,2,11,blue-orange,499.941,fieldSmooth,0.098716,1.9,1,1.1,0,0,6,10579,522
1306,56752,2,3,12,blue-orange,499.941,fieldSmooth,0.098716,1.9,1,1.1,0,0,6,19846,471
1306,56753,2,4,13,blue-orange,499.941,fieldSmooth,0.098716,1.9,1,1.1,1,1,2,9619,535
1306,56754,2,5,14,blue-orange,499.941,fieldSmooth,0.098716,1.9,1,1.1,0,0,4,10638,602
1306,56755,2,6,15,blue-orange,499.941,fieldSmooth,0.098716,1.9,1,1.1,1,1,1,6462,615
1306,56756,2,7,16,blue-orange,499.941,fieldSmooth,0.098716,1.9,1,1.1,1,1,5,10068,567
1306,56757,2,8,17,blue-orange,499.941,fieldSmooth,0.098716,1.9,1,1.1,1,2,6,9900,632
1306,56758,2,9,18,blue-orange,499.941,fieldSmooth,0.098716,1.9,1,1.1,1,1,3,4127,503
1307,56975,3,1,19,jet,793.453,fieldSmooth,0.098716,1.9,1,1.1,1,1,5,17188,949
1307,56976,3,2,20,jet,793.453,fieldSmooth,0.098716,1.9,1,1.1,1,1,2,27528,1074
1307,56977,3,3,21,jet,793.453,fieldSmooth,0.098716,1.9,1,1.1,1,1,6,18294,998
1307,56978,3,4,22,jet,793.453,fieldSmooth,0.098716,1.9,1,1.1,1,1,3,99218,927
1307,56979,3,5,23,jet,793.453,fieldSmooth,0.098716,1.9,1,1.1,1,1,4,8854,987
1307,56980,3,6,24,jet,793.453,fieldSmooth,0.098716,1.9,1,1.1,0,0,1,29266,944
1307,56981,3,7,25,jet,793.453,fieldSmooth,0.098716,1.9,1,1.1,1,1,3,7234,937
1307,56982,3,8,26,jet,793.453,fieldSmooth,0.098716,1.9,1,1.1,1,1,4,10360,944
1307,56983,3,9,27,jet,793.453,fieldSmooth,0.098716,1.9,1,1.1,1,1,3,13325,1013
1307,56984,4,1,28,blue,148.302,fieldSmooth,0.098716,1.9,1,1.1,1,1,3,12675,985
1307,56985,4,2,29,blue,148.302,fieldSmooth,0.098716,1.9,1,1.1,0,0,4,17376,1018
1307,56986,4,3,30,blue,148.302,fieldSmooth,0.098716,1.9,1,1.1,0,0,6,12601,923
1307,56987,4,4,31,blue,148.302,fieldSmooth,0.098716,1.9,1,1.1,0,0,6,19592,1005
1307,56988,4,5,32,blue,148.302,fieldSmooth,0.098716,1.9,1,1.1,1,2,1,13444,1126
1307,56989,4,6,33,blue,148.302,fieldSmooth,0.098716,1.9,1,1.1,0,0,5,8180,1018
1307,56990,4,7,34,blue,148.302,fieldSmooth,0.098716,1.9,1,1.1,0,0,6,16309,1214
1307,56991,4,8,35,blue,148.302,fieldSmooth,0.098716,1.9,1,1.1,1,1,4,9813,1159
1307,56992,4,9,36,blue,148.302,fieldSmooth,0.098716,1.9,1,1.1,1,1,1,42861,1011
1307,56957,1,1,1,viridis,409,fieldSmooth,0.098716,1.9,1,1.1,1,1,3,22232,926
1307,56958,1,2,2,viridis,409,fieldSmooth,0.098716,1.9,1,1.1,1,1,3,13961,979
1307,56959,1,3,3,viridis,409,fieldSmooth,0.098716,1.9,1,1.1,1,1,1,20989,924
1307,56960,1,4,4,viridis,409,fieldSmooth,0.098716,1.9,1,1.1,0,0,4,14168,915
1307,56961,1,5,5,viridis,409,fieldSmooth,0.098716,1.9,1,1.1,1,1,2,15451,933
1307,56962,1,6,6,viridis,409,fieldSmooth,0.098716,1.9,1,1.1,0,0,6,10193,853
1307,56963,1,7,7,viridis,409,fieldSmooth,0.098716,1.9,1,1.1,1,1,2,8669,1180
1307,56964,1,8,8,viridis,409,fieldSmooth,0.098716,1.9,1,1.1,1,1,2,6946,1154
1307,56965,1,9,9,viridis,409,fieldSmooth,0.098716,1.9,1,1.1,0,0,6,11963,879
1307,56966,2,1,10,blue-orange,499.941,fieldSmooth,0.098716,1.9,1,1.1,1,1,6,21731,1261
1307,56967,2,2,11,blue-orange,499.941,fieldSmooth,0.098716,1.9,1,1.1,1,1,6,10004,1045
1307,56968,2,3,12,blue-orange,499.941,fieldSmooth,0.098716,1.9,1,1.1,0,0,2,24490,1239
1307,56969,2,4,13,blue-orange,499.941,fieldSmooth,0.098716,1.9,1,1.1,1,1,1,11978,1062
1307,56970,2,5,14,blue-orange,499.941,fieldSmooth,0.098716,1.9,1,1.1,0,0,6,15443,950
1307,56971,2,6,15,blue-orange,499.941,fieldSmooth,0.098716,1.9,1,1.1,1,1,3,5651,1176
1307,56972,2,7,16,blue-orange,499.941,fieldSmooth,0.098716,1.9,1,1.1,1,1,3,5715,960
1307,56973,2,8,17,blue-orange,499.941,fieldSmooth,0.098716,1.9,1,1.1,1,1,2,6865,1006
1307,56974,2,9,18,blue-orange,499.941,fieldSmooth,0.098716,1.9,1,1.1,1,1,1,13266,978
1308,56858,2,1,10,jet,793.453,fieldSmooth,0.098716,1.9,1,1.1,1,1,2,6225,463
1308,56859,2,2,11,jet,793.453,fieldSmooth,0.098716,1.9,1,1.1,1,1,3,5534,469
1308,56860,2,3,12,jet,793.453,fieldSmooth,0.098716,1.9,1,1.1,1,1,6,4340,463
1308,56861,2,4,13,jet,793.453,fieldSmooth,0.098716,1.9,1,1.1,1,1,3,4086,475
1308,56862,2,5,14,jet,793.453,fieldSmooth,0.098716,1.9,1,1.1,1,1,5,5011,485
1308,56863,2,6,15,jet,793.453,fieldSmooth,0.098716,1.9,1,1.1,1,1,3,2480,474
1308,56864,2,7,16,jet,793.453,fieldSmooth,0.098716,1.9,1,1.1,1,1,3,3072,475
1308,56865,2,8,17,jet,793.453,fieldSmooth,0.098716,1.9,1,1.1,1,2,4,4687,481
1308,56866,2,9,18,jet,793.453,fieldSmooth,0.098716,1.9,1,1.1,1,1,6,8688,485
1308,56876,4,1,28,blue,148.302,fieldSmooth,0.098716,1.9,1,1.1,1,1,3,5608,483
1308,56877,4,2,29,blue,148.302,fieldSmooth,0.098716,1.9,1,1.1,1,1,3,3125,486
1308,56878,4,3,30,blue,148.302,fieldSmooth,0.098716,1.9,1,1.1,0,0,1,6498,471
1308,56879,4,4,31,blue,148.302,fieldSmooth,0.098716,1.9,1,1.1,1,1,1,5069,468
1308,56880,4,5,32,blue,148.302,fieldSmooth,0.098716,1.9,1,1.1,1,1,5,3953,479
1308,56881,4,6,33,blue,148.302,fieldSmooth,0.098716,1.9,1,1.1,0,0,1,6252,518
1308,56882,4,7,34,blue,148.302,fieldSmooth,0.098716,1.9,1,1.1,1,1,6,2752,471
1308,56883,4,8,35,blue,148.302,fieldSmooth,0.098716,1.9,1,1.1,0,0,6,4137,478
1308,56884,4,9,36,blue,148.302,fieldSmooth,0.098716,1.9,1,1.1,0,0,6,3807,476
1308,56867,3,1,19,viridis,409,fieldSmooth,0.098716,1.9,1,1.1,0,0,1,5820,465
1308,56868,3,2,20,viridis,409,fieldSmooth,0.098716,1.9,1,1.1,0,0,2,4885,472
1308,56869,3,3,21,viridis,409,fieldSmooth,0.098716,1.9,1,1.1,0,0,2,3843,473
1308,56870,3,4,22,viridis,409,fieldSmooth,0.098716,1.9,1,1.1,0,0,6,4288,484
1308,56871,3,5,23,viridis,409,fieldSmooth,0.098716,1.9,1,1.1,1,1,6,3067,473
1308,56872,3,6,24,viridis,409,fieldSmooth,0.098716,1.9,1,1.1,1,1,2,5278,480
1308,56873,3,7,25,viridis,409,fieldSmooth,0.098716,1.9,1,1.1,1,1,3,5197,483
1308,56874,3,8,26,viridis,409,fieldSmooth,0.098716,1.9,1,1.1,1,1,3,5802,480
1308,56875,3,9,27,viridis,409,fieldSmooth,0.098716,1.9,1,1.1,1,2,4,5044,472
1308,56849,1,1,1,blue-orange,499.941,fieldSmooth,0.098716,1.9,1,1.1,1,1,2,3804,480
1308,56850,1,2,2,blue-orange,499.941,fieldSmooth,0.098716,1.9,1,1.1,1,1,2,3069,455
1308,56851,1,3,3,blue-orange,499.941,fieldSmooth,0.098716,1.9,1,1.1,1,1,5,8474,489
1308,56852,1,4,4,blue-orange,499.941,fieldSmooth,0.098716,1.9,1,1.1,1,2,2,8414,482
1308,56853,1,5,5,blue-orange,499.941,fieldSmooth,0.098716,1.9,1,1.1,1,1,3,3095,492
1308,56854,1,6,6,blue-orange,499.941,fieldSmooth,0.098716,1.9,1,1.1,1,1,5,282430,500
1308,56855,1,7,7,blue-orange,499.941,fieldSmooth,0.098716,1.9,1,1.1,1,2,1,21230,476
1308,56856,1,8,8,blue-orange,499.941,fieldSmooth,0.098716,1.9,1,1.1,1,1,2,5941,470
1308,56857,1,9,9,blue-orange,499.941,fieldSmooth,0.098716,1.9,1,1.1,0,0,5,4527,475
1310,57029,1,1,1,jet,793.453,fieldSmooth,0.098716,1.9,1,1.1,1,1,3,8004,662
1310,57030,1,2,2,jet,793.453,fieldSmooth,0.098716,1.9,1,1.1,1,1,4,6851,632
1310,57031,1,3,3,jet,793.453,fieldSmooth,0.098716,1.9,1,1.1,1,2,1,15439,555
1310,57032,1,4,4,jet,793.453,fieldSmooth,0.098716,1.9,1,1.1,1,1,6,4746,609
1310,57033,1,5,5,jet,793.453,fieldSmooth,0.098716,1.9,1,1.1,1,1,4,5993,642
1310,57034,1,6,6,jet,793.453,fieldSmooth,0.098716,1.9,1,1.1,0,0,5,25717,558
1310,57035,1,7,7,jet,793.453,fieldSmooth,0.098716,1.9,1,1.1,1,1,6,6042,633
1310,57036,1,8,8,jet,793.453,fieldSmooth,0.098716,1.9,1,1.1,1,2,3,14904,635
1310,57037,1,9,9,jet,793.453,fieldSmooth,0.098716,1.9,1,1.1,0,0,1,16333,645
1310,57038,2,1,10,blue,148.302,fieldSmooth,0.098716,1.9,1,1.1,1,2,5,17603,661
1310,57039,2,2,11,blue,148.302,fieldSmooth,0.098716,1.9,1,1.1,1,1,6,10356,654
1310,57040,2,3,12,blue,148.302,fieldSmooth,0.098716,1.9,1,1.1,0,0,1,14683,721
1310,57041,2,4,13,blue,148.302,fieldSmooth,0.098716,1.9,1,1.1,1,1,6,13353,564
1310,57042,2,5,14,blue,148.302,fieldSmooth,0.098716,1.9,1,1.1,0,0,6,12066,571
1310,57043,2,6,15,blue,148.302,fieldSmooth,0.098716,1.9,1,1.1,0,0,1,9919,650
1310,57044,2,7,16,blue,148.302,fieldSmooth,0.098716,1.9,1,1.1,1,2,4,7187,536
1310,57045,2,8,17,blue,148.302,fieldSmooth,0.098716,1.9,1,1.1,0,0,4,8286,629
1310,57046,2,9,18,blue,148.302,fieldSmooth,0.098716,1.9,1,1.1,1,2,4,16455,604
1310,57056,4,1,28,viridis,409,fieldSmooth,0.098716,1.9,1,1.1,0,0,1,10812,651
1310,57057,4,2,29,viridis,409,fieldSmooth,0.098716,1.9,1,1.1,0,0,1,10386,615
1310,57058,4,3,30,viridis,409,fieldSmooth,0.098716,1.9,1,1.1,0,0,1,7515,631
1310,57059,4,4,31,viridis,409,fieldSmooth,0.098716,1.9,1,1.1,1,1,4,8732,608
1310,57060,4,5,32,viridis,409,fieldSmooth,0.098716,1.9,1,1.1,0,0,1,8820,606
1310,57061,4,6,33,viridis,409,fieldSmooth,0.098716,1.9,1,1.1,1,1,1,5779,688
1310,57062,4,7,34,viridis,409,fieldSmooth,0.098716,1.9,1,1.1,1,1,1,7378,562
1310,57063,4,8,35,viridis,409,fieldSmooth,0.098716,1.9,1,1.1,1,1,4,4001,594
1310,57064,4,9,36,viridis,409,fieldSmooth,0.098716,1.9,1,1.1,0,0,1,9908,590
1310,57047,3,1,19,blue-orange,499.941,fieldSmooth,0.098716,1.9,1,1.1,1,1,3,7748,636
1310,57048,3,2,20,blue-orange,499.941,fieldSmooth,0.098716,1.9,1,1.1,1,1,1,6669,573
1310,57049,3,3,21,blue-orange,499.941,fieldSmooth,0.098716,1.9,1,1.1,1,1,6,10124,639
1310,57050,3,4,22,blue-orange,499.941,fieldSmooth,0.098716,1.9,1,1.1,0,0,4,20509,613
1310,57051,3,5,23,blue-orange,499.941,fieldSmooth,0.098716,1.9,1,1.1,1,1,6,4338,665
1310,57052,3,6,24,blue-orange,499.941,fieldSmooth,0.098716,1.9,1,1.1,1,1,5,7432,634
1310,57053,3,7,25,blue-orange,499.941,fieldSmooth,0.098716,1.9,1,1.1,1,1,3,23628,663
1310,57054,3,8,26,blue-orange,499.941,fieldSmooth,0.098716,1.9,1,1.1,0,0,4,11355,632
1310,57055,3,9,27,blue-orange,499.941,fieldSmooth,0.098716,1.9,1,1.1,1,1,6,9843,638
1312,57128,4,1,28,jet,793.453,fieldSmooth,0.098716,1.9,1,1.1,0,0,4,6588,501
1312,57129,4,2,29,jet,793.453,fieldSmooth,0.098716,1.9,1,1.1,0,0,6,7363,573
1312,57130,4,3,30,jet,793.453,fieldSmooth,0.098716,1.9,1,1.1,0,0,5,11753,572
1312,57131,4,4,31,jet,793.453,fieldSmooth,0.098716,1.9,1,1.1,1,1,5,4416,555
1312,57132,4,5,32,jet,793.453,fieldSmooth,0.098716,1.9,1,1.1,1,1,3,4751,542
1312,57133,4,6,33,jet,793.453,fieldSmooth,0.098716,1.9,1,1.1,1,1,3,16915,499
1312,57134,4,7,34,jet,793.453,fieldSmooth,0.098716,1.9,1,1.1,0,0,1,11732,729
1312,57135,4,8,35,jet,793.453,fieldSmooth,0.098716,1.9,1,1.1,1,1,5,8563,560
1312,57136,4,9,36,jet,793.453,fieldSmooth,0.098716,1.9,1,1.1,1,1,6,11025,575
1312,57110,2,1,10,blue,148.302,fieldSmooth,0.098716,1.9,1,1.1,1,2,2,11251,525
1312,57111,2,2,11,blue,148.302,fieldSmooth,0.098716,1.9,1,1.1,1,2,6,4717,581
1312,57112,2,3,12,blue,148.302,fieldSmooth,0.098716,1.9,1,1.1,1,1,5,12613,534
1312,57113,2,4,13,blue,148.302,fieldSmooth,0.098716,1.9,1,1.1,0,0,4,14743,642
1312,57114,2,5,14,blue,148.302,fieldSmooth,0.098716,1.9,1,1.1,0,0,1,15187,520
1312,57115,2,6,15,blue,148.302,fieldSmooth,0.098716,1.9,1,1.1,1,2,3,9940,525
1312,57116,2,7,16,blue,148.302,fieldSmooth,0.098716,1.9,1,1.1,1,1,6,13561,481
1312,57117,2,8,17,blue,148.302,fieldSmooth,0.098716,1.9,1,1.1,0,0,6,7892,563
1312,57118,2,9,18,blue,148.302,fieldSmooth,0.098716,1.9,1,1.1,0,0,1,9222,541
1312,57101,1,1,1,viridis,409,fieldSmooth,0.098716,1.9,1,1.1,1,1,1,34253,589
1312,57102,1,2,2,viridis,409,fieldSmooth,0.098716,1.9,1,1.1,1,1,4,9326,588
1312,57103,1,3,3,viridis,409,fieldSmooth,0.098716,1.9,1,1.1,0,0,5,11044,570
1312,57104,1,4,4,viridis,409,fieldSmooth,0.098716,1.9,1,1.1,1,1,4,5830,575
1312,57105,1,5,5,viridis,409,fieldSmooth,0.098716,1.9,1,1.1,1,1,2,6479,573
1312,57106,1,6,6,viridis,409,fieldSmooth,0.098716,1.9,1,1.1,1,1,4,19913,510
1312,57107,1,7,7,viridis,409,fieldSmooth,0.098716,1.9,1,1.1,1,1,6,15294,600
1312,57108,1,8,8,viridis,409,fieldSmooth,0.098716,1.9,1,1.1,0,0,5,21793,521
1312,57109,1,9,9,viridis,409,fieldSmooth,0.098716,1.9,1,1.1,1,1,1,14034,566
1312,57119,3,1,19,blue-orange,499.941,fieldSmooth,0.098716,1.9,1,1.1,1,1,6,14306,552
1312,57120,3,2,20,blue-orange,499.941,fieldSmooth,0.098716,1.9,1,1.1,0,0,3,20173,540
1312,57121,3,3,21,blue-orange,499.941,fieldSmooth,0.098716,1.9,1,1.1,0,0,6,13095,488
1312,57122,3,4,22,blue-orange,499.941,fieldSmooth,0.098716,1.9,1,1.1,1,1,4,9038,516
1312,57123,3,5,23,blue-orange,499.941,fieldSmooth,0.098716,1.9,1,1.1,1,1,4,5962,559
1312,57124,3,6,24,blue-orange,499.941,fieldSmooth,0.098716,1.9,1,1.1,1,1,4,3688,488
1312,57125,3,7,25,blue-orange,499.941,fieldSmooth,0.098716,1.9,1,1.1,1,2,1,4233,545
1312,57126,3,8,26,blue-orange,499.941,fieldSmooth,0.098716,1.9,1,1.1,1,1,3,6726,478
1312,57127,3,9,27,blue-orange,499.941,fieldSmooth,0.098716,1.9,1,1.1,1,2,1,9504,489
1313,57272,4,1,28,jet,793.453,fieldSmooth,0.098716,1.9,1,1.1,1,1,2,9937,383
1313,57273,4,2,29,jet,793.453,fieldSmooth,0.098716,1.9,1,1.1,1,1,1,6313,362
1313,57274,4,3,30,jet,793.453,fieldSmooth,0.098716,1.9,1,1.1,1,1,3,6850,402
1313,57275,4,4,31,jet,793.453,fieldSmooth,0.098716,1.9,1,1.1,1,1,5,24107,366
1313,57276,4,5,32,jet,793.453,fieldSmooth,0.098716,1.9,1,1.1,1,1,1,9971,363
1313,57277,4,6,33,jet,793.453,fieldSmooth,0.098716,1.9,1,1.1,1,1,5,6473,360
1313,57278,4,7,34,jet,793.453,fieldSmooth,0.098716,1.9,1,1.1,1,1,4,9203,368
1313,57279,4,8,35,jet,793.453,fieldSmooth,0.098716,1.9,1,1.1,1,1,5,5050,358
1313,57280,4,9,36,jet,793.453,fieldSmooth,0.098716,1.9,1,1.1,1,1,6,10399,367
1313,57263,3,1,19,blue,148.302,fieldSmooth,0.098716,1.9,1,1.1,0,0,4,17164,375
1313,57264,3,2,20,blue,148.302,fieldSmooth,0.098716,1.9,1,1.1,0,0,5,91533,400
1313,57265,3,3,21,blue,148.302,fieldSmooth,0.098716,1.9,1,1.1,1,1,4,19658,370
1313,57266,3,4,22,blue,148.302,fieldSmooth,0.098716,1.9,1,1.1,1,1,1,20975,377
1313,57267,3,5,23,blue,148.302,fieldSmooth,0.098716,1.9,1,1.1,1,1,4,68286,365
1313,57268,3,6,24,blue,148.302,fieldSmooth,0.098716,1.9,1,1.1,1,2,4,14701,366
1313,57269,3,7,25,blue,148.302,fieldSmooth,0.098716,1.9,1,1.1,1,2,4,10435,397
1313,57270,3,8,26,blue,148.302,fieldSmooth,0.098716,1.9,1,1.1,1,2,5,49127,366
1313,57271,3,9,27,blue,148.302,fieldSmooth,0.098716,1.9,1,1.1,1,2,1,26104,365
1313,57254,2,1,10,viridis,409,fieldSmooth,0.098716,1.9,1,1.1,1,1,2,24288,367
1313,57255,2,2,11,viridis,409,fieldSmooth,0.098716,1.9,1,1.1,0,0,4,28091,361
1313,57256,2,3,12,viridis,409,fieldSmooth,0.098716,1.9,1,1.1,0,0,6,31244,354
1313,57257,2,4,13,viridis,409,fieldSmooth,0.098716,1.9,1,1.1,1,1,1,41191,373
1313,57258,2,5,14,viridis,409,fieldSmooth,0.098716,1.9,1,1.1,1,1,5,83420,368
1313,57259,2,6,15,viridis,409,fieldSmooth,0.098716,1.9,1,1.1,0,0,1,92461,364
1313,57260,2,7,16,viridis,409,fieldSmooth,0.098716,1.9,1,1.1,0,0,3,41424,367
1313,57261,2,8,17,viridis,409,fieldSmooth,0.098716,1.9,1,1.1,1,2,2,14918,363
1313,57262,2,9,18,viridis,409,fieldSmooth,0.098716,1.9,1,1.1,0,0,3,50228,371
1313,57245,1,1,1,blue-orange,499.941,fieldSmooth,0.098716,1.9,1,1.1,1,1,1,10488,375
1313,57246,1,2,2,blue-orange,499.941,fieldSmooth,0.098716,1.9,1,1.1,1,1,3,12000,370
1313,57247,1,3,3,blue-orange,499.941,fieldSmooth,0.098716,1.9,1,1.1,1,1,1,24600,395
1313,57248,1,4,4,blue-orange,499.941,fieldSmooth,0.098716,1.9,1,1.1,0,0,4,30012,366
1313,57249,1,5,5,blue-orange,499.941,fieldSmooth,0.098716,1.9,1,1.1,1,1,4,7444,375
1313,57250,1,6,6,blue-orange,499.941,fieldSmooth,0.098716,1.9,1,1.1,1,1,3,16348,366
1313,57251,1,7,7,blue-orange,499.941,fieldSmooth,0.098716,1.9,1,1.1,1,1,1,4264,366
1313,57252,1,8,8,blue-orange,499.941,fieldSmooth,0.098716,1.9,1,1.1,1,1,5,9292,374
1313,57253,1,9,9,blue-orange,499.941,fieldSmooth,0.098716,1.9,1,1.1,1,1,1,16115,353
1315,57200,4,1,28,jet,793.453,fieldSmooth,0.098716,1.9,1,1.1,0,0,6,6018,2182
1315,57201,4,2,29,jet,793.453,fieldSmooth,0.098716,1.9,1,1.1,1,1,1,10101,2477
1315,57202,4,3,30,jet,793.453,fieldSmooth,0.098716,1.9,1,1.1,1,1,3,6430,2462
1315,57203,4,4,31,jet,793.453,fieldSmooth,0.098716,1.9,1,1.1,1,1,2,6569,1655
1315,57204,4,5,32,jet,793.453,fieldSmooth,0.098716,1.9,1,1.1,1,2,4,6208,1669
1315,57205,4,6,33,jet,793.453,fieldSmooth,0.098716,1.9,1,1.1,0,0,1,11684,2345
1315,57206,4,7,34,jet,793.453,fieldSmooth,0.098716,1.9,1,1.1,1,1,2,3005,3139
1315,57207,4,8,35,jet,793.453,fieldSmooth,0.098716,1.9,1,1.1,0,0,5,2836,2117
1315,57208,4,9,36,jet,793.453,fieldSmooth,0.098716,1.9,1,1.1,0,0,2,9234,3423
1315,57173,1,1,1,blue,148.302,fieldSmooth,0.098716,1.9,1,1.1,1,2,1,21937,1698
1315,57174,1,2,2,blue,148.302,fieldSmooth,0.098716,1.9,1,1.1,0,0,2,4843,2886
1315,57175,1,3,3,blue,148.302,fieldSmooth,0.098716,1.9,1,1.1,1,2,2,4552,3080
1315,57176,1,4,4,blue,148.302,fieldSmooth,0.098716,1.9,1,1.1,0,0,4,5156,3156
1315,57177,1,5,5,blue,148.302,fieldSmooth,0.098716,1.9,1,1.1,1,1,5,9206,2795
1315,57178,1,6,6,blue,148.302,fieldSmooth,0.098716,1.9,1,1.1,0,0,4,4279,2586
1315,57179,1,7,7,blue,148.302,fieldSmooth,0.098716,1.9,1,1.1,0,0,6,4165,2815
1315,57180,1,8,8,blue,148.302,fieldSmooth,0.098716,1.9,1,1.1,0,0,2,26565,2892
1315,57181,1,9,9,blue,148.302,fieldSmooth,0.098716,1.9,1,1.1,1,2,2,4416,3765
1315,57182,2,1,10,viridis,409,fieldSmooth,0.098716,1.9,1,1.1,0,0,4,5080,2662
1315,57183,2,2,11,viridis,409,fieldSmooth,0.098716,1.9,1,1.1,1,2,3,7820,2966
1315,57184,2,3,12,viridis,409,fieldSmooth,0.098716,1.9,1,1.1,1,1,3,7113,1846
1315,57185,2,4,13,viridis,409,fieldSmooth,0.098716,1.9,1,1.1,0,0,4,10776,2035
1315,57186,2,5,14,viridis,409,fieldSmooth,0.098716,1.9,1,1.1,1,1,2,3489,1708
1315,57187,2,6,15,viridis,409,fieldSmooth,0.098716,1.9,1,1.1,0,0,5,3229,3336
1315,57188,2,7,16,viridis,409,fieldSmooth,0.098716,1.9,1,1.1,1,1,4,6631,1554
1315,57189,2,8,17,viridis,409,fieldSmooth,0.098716,1.9,1,1.1,0,0,5,11631,2211
1315,57190,2,9,18,viridis,409,fieldSmooth,0.098716,1.9,1,1.1,0,0,4,6599,2671
1315,57191,3,1,19,blue-orange,499.941,fieldSmooth,0.098716,1.9,1,1.1,1,1,6,8543,3262
1315,57192,3,2,20,blue-orange,499.941,fieldSmooth,0.098716,1.9,1,1.1,1,1,3,8111,2036
1315,57193,3,3,21,blue-orange,499.941,fieldSmooth,0.098716,1.9,1,1.1,0,0,3,6886,2411
1315,57194,3,4,22,blue-orange,499.941,fieldSmooth,0.098716,1.9,1,1.1,1,2,2,3976,2300
1315,57195,3,5,23,blue-orange,499.941,fieldSmooth,0.098716,1.9,1,1.1,1,1,4,6632,2309
1315,57196,3,6,24,blue-orange,499.941,fieldSmooth,0.098716,1.9,1,1.1,1,2,4,5728,1843
1315,57197,3,7,25,blue-orange,499.941,fieldSmooth,0.098716,1.9,1,1.1,1,2,4,6241,2058
1315,57198,3,8,26,blue-orange,499.941,fieldSmooth,0.098716,1.9,1,1.1,0,0,4,6558,2503
1315,57199,3,9,27,blue-orange,499.941,fieldSmooth,0.098716,1.9,1,1.1,0,0,6,4864,2756
1316,57299,3,1,19,jet,793.453,fieldSmooth,0.098716,1.9,1,1.1,1,1,6,16465,280
1316,57300,3,2,20,jet,793.453,fieldSmooth,0.098716,1.9,1,1.1,1,1,1,11387,285
1316,57301,3,3,21,jet,793.453,fieldSmooth,0.098716,1.9,1,1.1,1,1,4,6420,270
1316,57302,3,4,22,jet,793.453,fieldSmooth,0.098716,1.9,1,1.1,1,1,2,4096,288
1316,57303,3,5,23,jet,793.453,fieldSmooth,0.098716,1.9,1,1.1,1,1,6,10381,271
1316,57304,3,6,24,jet,793.453,fieldSmooth,0.098716,1.9,1,1.1,1,1,5,8680,279
1316,57305,3,7,25,jet,793.453,fieldSmooth,0.098716,1.9,1,1.1,1,1,3,5176,283
1316,57306,3,8,26,jet,793.453,fieldSmooth,0.098716,1.9,1,1.1,1,1,3,5223,276
1316,57307,3,9,27,jet,793.453,fieldSmooth,0.098716,1.9,1,1.1,1,1,4,21861,260
1316,57308,4,1,28,blue,148.302,fieldSmooth,0.098716,1.9,1,1.1,1,2,1,9690,283
1316,57309,4,2,29,blue,148.302,fieldSmooth,0.098716,1.9,1,1.1,1,2,2,4665,281
1316,57310,4,3,30,blue,148.302,fieldSmooth,0.098716,1.9,1,1.1,1,2,2,38657,287
1316,57311,4,4,31,blue,148.302,fieldSmooth,0.098716,1.9,1,1.1,1,2,6,8957,279
1316,57312,4,5,32,blue,148.302,fieldSmooth,0.098716,1.9,1,1.1,1,2,3,4170,316
1316,57313,4,6,33,blue,148.302,fieldSmooth,0.098716,1.9,1,1.1,1,2,4,14305,278
1316,57314,4,7,34,blue,148.302,fieldSmooth,0.098716,1.9,1,1.1,1,2,5,9001,281
1316,57315,4,8,35,blue,148.302,fieldSmooth,0.098716,1.9,1,1.1,1,2,3,28871,270
1316,57316,4,9,36,blue,148.302,fieldSmooth,0.098716,1.9,1,1.1,1,2,3,8760,274
1316,57281,1,1,1,viridis,409,fieldSmooth,0.098716,1.9,1,1.1,1,1,6,14253,623
1316,57282,1,2,2,viridis,409,fieldSmooth,0.098716,1.9,1,1.1,1,1,1,22995,285
1316,57283,1,3,3,viridis,409,fieldSmooth,0.098716,1.9,1,1.1,1,2,1,7881,275
1316,57284,1,4,4,viridis,409,fieldSmooth,0.098716,1.9,1,1.1,1,1,5,9252,272
1316,57285,1,5,5,viridis,409,fieldSmooth,0.098716,1.9,1,1.1,1,2,6,18614,292
1316,57286,1,6,6,viridis,409,fieldSmooth,0.098716,1.9,1,1.1,1,1,2,4692,267
1316,57287,1,7,7,viridis,409,fieldSmooth,0.098716,1.9,1,1.1,1,2,1,3708,279
1316,57288,1,8,8,viridis,409,fieldSmooth,0.098716,1.9,1,1.1,1,1,5,10761,269
1316,57289,1,9,9,viridis,409,fieldSmooth,0.098716,1.9,1,1.1,1,1,1,23204,276
1316,57290,2,1,10,blue-orange,499.941,fieldSmooth,0.098716,1.9,1,1.1,1,1,4,43020,287
1316,57291,2,2,11,blue-orange,499.941,fieldSmooth,0.098716,1.9,1,1.1,1,1,3,18696,273
1316,57292,2,3,12,blue-orange,499.941,fieldSmooth,0.098716,1.9,1,1.1,1,1,6,9494,291
1316,57293,2,4,13,blue-orange,499.941,fieldSmooth,0.098716,1.9,1,1.1,1,1,6,24195,273
1316,57294,2,5,14,blue-orange,499.941,fieldSmooth,0.098716,1.9,1,1.1,1,1,3,18556,272
1316,57295,2,6,15,blue-orange,499.941,fieldSmooth,0.098716,1.9,1,1.1,1,1,1,19115,280
1316,57296,2,7,16,blue-orange,499.941,fieldSmooth,0.098716,1.9,1,1.1,1,1,1,9557,276
1316,57297,2,8,17,blue-orange,499.941,fieldSmooth,0.098716,1.9,1,1.1,1,2,4,20470,279
1316,57298,2,9,18,blue-orange,499.941,fieldSmooth,0.098716,1.9,1,1.1,1,1,5,20339,282
1317,57137,1,1,1,jet,793.453,fieldSmooth,0.098716,1.9,1,1.1,0,0,6,7679,632
1317,57138,1,2,2,jet,793.453,fieldSmooth,0.098716,1.9,1,1.1,1,1,3,5317,932
1317,57139,1,3,3,jet,793.453,fieldSmooth,0.098716,1.9,1,1.1,0,0,4,13750,829
1317,57140,1,4,4,jet,793.453,fieldSmooth,0.098716,1.9,1,1.1,1,1,4,2866,878
1317,57141,1,5,5,jet,793.453,fieldSmooth,0.098716,1.9,1,1.1,1,1,6,3672,855
1317,57142,1,6,6,jet,793.453,fieldSmooth,0.098716,1.9,1,1.1,1,1,6,3418,855
1317,57143,1,7,7,jet,793.453,fieldSmooth,0.098716,1.9,1,1.1,0,0,4,6029,838
1317,57144,1,8,8,jet,793.453,fieldSmooth,0.098716,1.9,1,1.1,1,1,1,9263,852
1317,57145,1,9,9,jet,793.453,fieldSmooth,0.098716,1.9,1,1.1,1,1,5,3986,830
1317,57146,2,1,10,blue,148.302,fieldSmooth,0.098716,1.9,1,1.1,0,0,6,3018,859
1317,57147,2,2,11,blue,148.302,fieldSmooth,0.098716,1.9,1,1.1,0,0,2,4020,826
1317,57148,2,3,12,blue,148.302,fieldSmooth,0.098716,1.9,1,1.1,1,2,2,3205,780
1317,57149,2,4,13,blue,148.302,fieldSmooth,0.098716,1.9,1,1.1,0,0,6,9158,845
1317,57150,2,5,14,blue,148.302,fieldSmooth,0.098716,1.9,1,1.1,1,1,3,4219,887
1317,57151,2,6,15,blue,148.302,fieldSmooth,0.098716,1.9,1,1.1,0,0,6,4500,856
1317,57152,2,7,16,blue,148.302,fieldSmooth,0.098716,1.9,1,1.1,0,0,3,3823,805
1317,57153,2,8,17,blue,148.302,fieldSmooth,0.098716,1.9,1,1.1,0,0,6,7652,861
1317,57154,2,9,18,blue,148.302,fieldSmooth,0.098716,1.9,1,1.1,0,0,4,7006,885
1317,57155,3,1,19,viridis,409,fieldSmooth,0.098716,1.9,1,1.1,0,0,1,12970,859
1317,57156,3,2,20,viridis,409,fieldSmooth,0.098716,1.9,1,1.1,1,1,3,5373,915
1317,57157,3,3,21,viridis,409,fieldSmooth,0.098716,1.9,1,1.1,0,0,1,3619,846
1317,57158,3,4,22,viridis,409,fieldSmooth,0.098716,1.9,1,1.1,1,2,1,9850,888
1317,57159,3,5,23,viridis,409,fieldSmooth,0.098716,1.9,1,1.1,0,0,3,22032,851
1317,57160,3,6,24,viridis,409,fieldSmooth,0.098716,1.9,1,1.1,1,1,4,2965,884
1317,57161,3,7,25,viridis,409,fieldSmooth,0.098716,1.9,1,1.1,0,0,6,6178,882
1317,57162,3,8,26,viridis,409,fieldSmooth,0.098716,1.9,1,1.1,0,0,5,4487,809
1317,57163,3,9,27,viridis,409,fieldSmooth,0.098716,1.9,1,1.1,0,0,2,2678,861
1317,57164,4,1,28,blue-orange,499.941,fieldSmooth,0.098716,1.9,1,1.1,1,1,6,4842,821
1317,57165,4,2,29,blue-orange,499.941,fieldSmooth,0.098716,1.9,1,1.1,1,1,5,3308,836
1317,57166,4,3,30,blue-orange,499.941,fieldSmooth,0.098716,1.9,1,1.1,1,2,3,6077,879
1317,57167,4,4,31,blue-orange,499.941,fieldSmooth,0.098716,1.9,1,1.1,1,2,3,6528,868
1317,57168,4,5,32,blue-orange,499.941,fieldSmooth,0.098716,1.9,1,1.1,0,0,3,6279,869
1317,57169,4,6,33,blue-orange,499.941,fieldSmooth,0.098716,1.9,1,1.1,0,0,4,3602,863
1317,57170,4,7,34,blue-orange,499.941,fieldSmooth,0.098716,1.9,1,1.1,1,1,3,8800,864
1317,57171,4,8,35,blue-orange,499.941,fieldSmooth,0.098716,1.9,1,1.1,1,1,4,4655,875
1317,57172,4,9,36,blue-orange,499.941,fieldSmooth,0.098716,1.9,1,1.1,1,1,1,8783,852
1321,57209,1,1,1,jet,793.453,fieldSmooth,0.098716,1.9,1,1.1,1,2,1,3585,1291
1321,57210,1,2,2,jet,793.453,fieldSmooth,0.098716,1.9,1,1.1,0,0,3,1616,602
1321,57211,1,3,3,jet,793.453,fieldSmooth,0.098716,1.9,1,1.1,0,0,1,2658,584
1321,57212,1,4,4,jet,793.453,fieldSmooth,0.098716,1.9,1,1.1,0,0,3,2530,585
1321,57213,1,5,5,jet,793.453,fieldSmooth,0.098716,1.9,1,1.1,0,0,1,1377,580
1321,57214,1,6,6,jet,793.453,fieldSmooth,0.098716,1.9,1,1.1,1,1,2,2122,577
1321,57215,1,7,7,jet,793.453,fieldSmooth,0.098716,1.9,1,1.1,1,2,3,1903,579
1321,57216,1,8,8,jet,793.453,fieldSmooth,0.098716,1.9,1,1.1,0,0,1,2037,591
1321,57217,1,9,9,jet,793.453,fieldSmooth,0.098716,1.9,1,1.1,0,0,6,5364,583
1321,57218,2,1,10,blue,148.302,fieldSmooth,0.098716,1.9,1,1.1,0,0,1,2791,591
1321,57219,2,2,11,blue,148.302,fieldSmooth,0.098716,1.9,1,1.1,0,0,4,2638,580
1321,57220,2,3,12,blue,148.302,fieldSmooth,0.098716,1.9,1,1.1,0,0,1,1435,584
1321,57221,2,4,13,blue,148.302,fieldSmooth,0.098716,1.9,1,1.1,1,2,1,2155,575
1321,57222,2,5,14,blue,148.302,fieldSmooth,0.098716,1.9,1,1.1,1,1,1,1690,578
1321,57223,2,6,15,blue,148.302,fieldSmooth,0.098716,1.9,1,1.1,0,0,6,2048,578
1321,57224,2,7,16,blue,148.302,fieldSmooth,0.098716,1.9,1,1.1,0,0,6,1808,578
1321,57225,2,8,17,blue,148.302,fieldSmooth,0.098716,1.9,1,1.1,1,1,3,2474,581
1321,57226,2,9,18,blue,148.302,fieldSmooth,0.098716,1.9,1,1.1,1,1,1,1542,581
1321,57227,3,1,19,viridis,409,fieldSmooth,0.098716,1.9,1,1.1,1,2,6,2367,585
1321,57228,3,2,20,viridis,409,fieldSmooth,0.098716,1.9,1,1.1,1,1,6,1851,585
1321,57229,3,3,21,viridis,409,fieldSmooth,0.098716,1.9,1,1.1,1,1,6,2285,590
1321,57230,3,4,22,viridis,409,fieldSmooth,0.098716,1.9,1,1.1,0,0,1,2147,577
1321,57231,3,5,23,viridis,409,fieldSmooth,0.098716,1.9,1,1.1,1,2,6,2677,582
1321,57232,3,6,24,viridis,409,fieldSmooth,0.098716,1.9,1,1.1,1,2,6,1992,580
1321,57233,3,7,25,viridis,409,fieldSmooth,0.098716,1.9,1,1.1,0,0,3,1670,581
1321,57234,3,8,26,viridis,409,fieldSmooth,0.098716,1.9,1,1.1,0,0,1,2248,579
1321,57235,3,9,27,viridis,409,fieldSmooth,0.098716,1.9,1,1.1,1,1,3,2407,587
1321,57236,4,1,28,blue-orange,499.941,fieldSmooth,0.098716,1.9,1,1.1,0,0,3,4046,585
1321,57237,4,2,29,blue-orange,499.941,fieldSmooth,0.098716,1.9,1,1.1,0,0,6,3297,578
1321,57238,4,3,30,blue-orange,499.941,fieldSmooth,0.098716,1.9,1,1.1,1,1,3,2817,578
1321,57239,4,4,31,blue-orange,499.941,fieldSmooth,0.098716,1.9,1,1.1,1,1,2,2394,577
1321,57240,4,5,32,blue-orange,499.941,fieldSmooth,0.098716,1.9,1,1.1,1,2,6,1859,584
1321,57241,4,6,33,blue-orange,499.941,fieldSmooth,0.098716,1.9,1,1.1,0,0,2,2093,582
1321,57242,4,7,34,blue-orange,499.941,fieldSmooth,0.098716,1.9,1,1.1,0,0,1,1249,579
1321,57243,4,8,35,blue-orange,499.941,fieldSmooth,0.098716,1.9,1,1.1,0,0,6,1800,579
1321,57244,4,9,36,blue-orange,499.941,fieldSmooth,0.098716,1.9,1,1.1,0,0,1,5261,582
1322,57335,3,1,19,jet,793.453,fieldSmooth,0.098716,1.9,1,1.1,0,0,4,5755,1604
1322,57336,3,2,20,jet,793.453,fieldSmooth,0.098716,1.9,1,1.1,1,1,2,4520,1639
1322,57337,3,3,21,jet,793.453,fieldSmooth,0.098716,1.9,1,1.1,0,0,3,4209,1800
1322,57338,3,4,22,jet,793.453,fieldSmooth,0.098716,1.9,1,1.1,1,1,3,4987,1490
1322,57339,3,5,23,jet,793.453,fieldSmooth,0.098716,1.9,1,1.1,1,1,4,8172,1444
1322,57340,3,6,24,jet,793.453,fieldSmooth,0.098716,1.9,1,1.1,1,1,3,2174,1649
1322,57341,3,7,25,jet,793.453,fieldSmooth,0.098716,1.9,1,1.1,1,1,5,4721,1512
1322,57342,3,8,26,jet,793.453,fieldSmooth,0.098716,1.9,1,1.1,1,1,6,3009,1757
1322,57343,3,9,27,jet,793.453,fieldSmooth,0.098716,1.9,1,1.1,1,1,6,4245,1628
1322,57344,4,1,28,blue,148.302,fieldSmooth,0.098716,1.9,1,1.1,0,0,6,2587,1863
1322,57345,4,2,29,blue,148.302,fieldSmooth,0.098716,1.9,1,1.1,0,0,5,5499,1634
1322,57346,4,3,30,blue,148.302,fieldSmooth,0.098716,1.9,1,1.1,1,1,3,6796,1914
1322,57347,4,4,31,blue,148.302,fieldSmooth,0.098716,1.9,1,1.1,0,0,3,3632,1704
1322,57348,4,5,32,blue,148.302,fieldSmooth,0.098716,1.9,1,1.1,0,0,3,4150,1565
1322,57349,4,6,33,blue,148.302,fieldSmooth,0.098716,1.9,1,1.1,0,0,3,4928,1845
1322,57350,4,7,34,blue,148.302,fieldSmooth,0.098716,1.9,1,1.1,0,0,6,4476,1517
1322,57351,4,8,35,blue,148.302,fieldSmooth,0.098716,1.9,1,1.1,0,0,2,3708,1702
1322,57352,4,9,36,blue,148.302,fieldSmooth,0.098716,1.9,1,1.1,0,0,6,3218,1578
1322,57317,1,1,1,viridis,409,fieldSmooth,0.098716,1.9,1,1.1,1,1,6,70482,2615
1322,57318,1,2,2,viridis,409,fieldSmooth,0.098716,1.9,1,1.1,0,0,5,66152,2543
1322,57319,1,3,3,viridis,409,fieldSmooth,0.098716,1.9,1,1.1,0,0,1,9207,1794
1322,57320,1,4,4,viridis,409,fieldSmooth,0.098716,1.9,1,1.1,1,1,6,5678,1677
1322,57321,1,5,5,viridis,409,fieldSmooth,0.098716,1.9,1,1.1,1,2,2,8429,1799
1322,57322,1,6,6,viridis,409,fieldSmooth,0.098716,1.9,1,1.1,0,0,6,8924,2374
1322,57323,1,7,7,viridis,409,fieldSmooth,0.098716,1.9,1,1.1,1,2,1,4280,1837
1322,57324,1,8,8,viridis,409,fieldSmooth,0.098716,1.9,1,1.1,1,1,2,3542,3514
1322,57325,1,9,9,viridis,409,fieldSmooth,0.098716,1.9,1,1.1,1,1,4,6927,1482
1322,57326,2,1,10,blue-orange,499.941,fieldSmooth,0.098716,1.9,1,1.1,1,1,3,3720,1980
1322,57327,2,2,11,blue-orange,499.941,fieldSmooth,0.098716,1.9,1,1.1,1,1,5,17501,2701
1322,57328,2,3,12,blue-orange,499.941,fieldSmooth,0.098716,1.9,1,1.1,1,2,3,3418,1582
1322,57329,2,4,13,blue-orange,499.941,fieldSmooth,0.098716,1.9,1,1.1,0,0,2,3255,1724
1322,57330,2,5,14,blue-orange,499.941,fieldSmooth,0.098716,1.9,1,1.1,1,1,6,3777,1649
1322,57331,2,6,15,blue-orange,499.941,fieldSmooth,0.098716,1.9,1,1.1,1,1,6,5286,1534
1322,57332,2,7,16,blue-orange,499.941,fieldSmooth,0.098716,1.9,1,1.1,0,0,3,3584,1671
1322,57333,2,8,17,blue-orange,499.941,fieldSmooth,0.098716,1.9,1,1.1,0,0,3,3821,1617
1322,57334,2,9,18,blue-orange,499.941,fieldSmooth,0.098716,1.9,1,1.1,0,0,3,4105,1795
1323,57470,2,1,10,jet,793.453,fieldSmooth,0.098716,1.9,1,1.1,1,1,4,16929,529
1323,57471,2,2,11,jet,793.453,fieldSmooth,0.098716,1.9,1,1.1,1,1,5,17427,508
1323,57472,2,3,12,jet,793.453,fieldSmooth,0.098716,1.9,1,1.1,0,0,6,24324,506
1323,57473,2,4,13,jet,793.453,fieldSmooth,0.098716,1.9,1,1.1,0,0,6,27732,518
1323,57474,2,5,14,jet,793.453,fieldSmooth,0.098716,1.9,1,1.1,1,1,4,6083,573
1323,57475,2,6,15,jet,793.453,fieldSmooth,0.098716,1.9,1,1.1,1,1,5,7089,520
1323,57476,2,7,16,jet,793.453,fieldSmooth,0.098716,1.9,1,1.1,1,1,2,9446,543
1323,57477,2,8,17,jet,793.453,fieldSmooth,0.098716,1.9,1,1.1,1,2,5,9371,507
1323,57478,2,9,18,jet,793.453,fieldSmooth,0.098716,1.9,1,1.1,1,1,4,12054,568
1323,57488,4,1,28,blue,148.302,fieldSmooth,0.098716,1.9,1,1.1,1,2,1,5826,535
1323,57489,4,2,29,blue,148.302,fieldSmooth,0.098716,1.9,1,1.1,0,0,4,10239,570
1323,57490,4,3,30,blue,148.302,fieldSmooth,0.098716,1.9,1,1.1,1,2,6,9195,516
1323,57491,4,4,31,blue,148.302,fieldSmooth,0.098716,1.9,1,1.1,1,2,4,5826,543
1323,57492,4,5,32,blue,148.302,fieldSmooth,0.098716,1.9,1,1.1,1,2,2,3634,580
1323,57493,4,6,33,blue,148.302,fieldSmooth,0.098716,1.9,1,1.1,1,2,4,2468,542
1323,57494,4,7,34,blue,148.302,fieldSmooth,0.098716,1.9,1,1.1,1,2,3,13212,504
1323,57495,4,8,35,blue,148.302,fieldSmooth,0.098716,1.9,1,1.1,1,2,2,11934,529
1323,57496,4,9,36,blue,148.302,fieldSmooth,0.098716,1.9,1,1.1,1,2,3,8743,479
1323,57461,1,1,1,viridis,409,fieldSmooth,0.098716,1.9,1,1.1,1,2,3,9570,467
1323,57462,1,2,2,viridis,409,fieldSmooth,0.098716,1.9,1,1.1,1,2,5,4623,558
1323,57463,1,3,3,viridis,409,fieldSmooth,0.098716,1.9,1,1.1,0,0,3,9070,537
1323,57464,1,4,4,viridis,409,fieldSmooth,0.098716,1.9,1,1.1,0,0,6,9570,515
1323,57465,1,5,5,viridis,409,fieldSmooth,0.098716,1.9,1,1.1,1,1,1,9656,579
1323,57466,1,6,6,viridis,409,fieldSmooth,0.098716,1.9,1,1.1,1,1,6,24518,535
1323,57467,1,7,7,viridis,409,fieldSmooth,0.098716,1.9,1,1.1,1,2,6,15380,550
1323,57468,1,8,8,viridis,409,fieldSmooth,0.098716,1.9,1,1.1,1,1,4,13632,507
1323,57469,1,9,9,viridis,409,fieldSmooth,0.098716,1.9,1,1.1,1,1,4,4028,500
1323,57479,3,1,19,blue-orange,499.941,fieldSmooth,0.098716,1.9,1,1.1,1,1,5,10850,618
1323,57480,3,2,20,blue-orange,499.941,fieldSmooth,0.098716,1.9,1,1.1,0,0,3,16925,558
1323,57481,3,3,21,blue-orange,499.941,fieldSmooth,0.098716,1.9,1,1.1,0,0,6,10260,535
1323,57482,3,4,22,blue-orange,499.941,fieldSmooth,0.098716,1.9,1,1.1,1,1,4,19639,561
1323,57483,3,5,23,blue-orange,499.941,fieldSmooth,0.098716,1.9,1,1.1,1,2,4,9210,554
1323,57484,3,6,24,blue-orange,499.941,fieldSmooth,0.098716,1.9,1,1.1,1,2,5,13786,530
1323,57485,3,7,25,blue-orange,499.941,fieldSmooth,0.098716,1.9,1,1.1,1,1,6,30972,552
1323,57486,3,8,26,blue-orange,499.941,fieldSmooth,0.098716,1.9,1,1.1,1,1,1,7034,524
1323,57487,3,9,27,blue-orange,499.941,fieldSmooth,0.098716,1.9,1,1.1,1,2,1,6157,485
1324,57398,2,1,10,jet,793.453,fieldSmooth,0.098716,1.9,1,1.1,1,1,3,7434,240
1324,57399,2,2,11,jet,793.453,fieldSmooth,0.098716,1.9,1,1.1,1,2,4,27978,243
1324,57400,2,3,12,jet,793.453,fieldSmooth,0.098716,1.9,1,1.1,1,1,6,3643,241
1324,57401,2,4,13,jet,793.453,fieldSmooth,0.098716,1.9,1,1.1,1,1,1,4099,243
1324,57402,2,5,14,jet,793.453,fieldSmooth,0.098716,1.9,1,1.1,1,1,4,14322,239
1324,57403,2,6,15,jet,793.453,fieldSmooth,0.098716,1.9,1,1.1,1,1,2,24635,238
1324,57404,2,7,16,jet,793.453,fieldSmooth,0.098716,1.9,1,1.1,1,1,4,14083,242
1324,57405,2,8,17,jet,793.453,fieldSmooth,0.098716,1.9,1,1.1,1,1,4,4898,246
1324,57406,2,9,18,jet,793.453,fieldSmooth,0.098716,1.9,1,1.1,1,1,4,3611,241
1324,57416,4,1,28,blue,148.302,fieldSmooth,0.098716,1.9,1,1.1,1,2,6,18301,241
1324,57417,4,2,29,blue,148.302,fieldSmooth,0.098716,1.9,1,1.1,0,0,6,6451,234
1324,57418,4,3,30,blue,148.302,fieldSmooth,0.098716,1.9,1,1.1,1,1,3,8579,238
1324,57419,4,4,31,blue,148.302,fieldSmooth,0.098716,1.9,1,1.1,0,0,1,8067,241
1324,57420,4,5,32,blue,148.302,fieldSmooth,0.098716,1.9,1,1.1,1,1,5,9890,240
1324,57421,4,6,33,blue,148.302,fieldSmooth,0.098716,1.9,1,1.1,0,0,4,9714,239
1324,57422,4,7,34,blue,148.302,fieldSmooth,0.098716,1.9,1,1.1,1,1,6,5083,240
1324,57423,4,8,35,blue,148.302,fieldSmooth,0.098716,1.9,1,1.1,1,1,6,6822,261
1324,57424,4,9,36,blue,148.302,fieldSmooth,0.098716,1.9,1,1.1,0,0,3,8323,242
1324,57389,1,1,1,viridis,409,fieldSmooth,0.098716,1.9,1,1.1,0,0,4,9394,528
1324,57390,1,2,2,viridis,409,fieldSmooth,0.098716,1.9,1,1.1,1,1,1,8220,279
1324,57391,1,3,3,viridis,409,fieldSmooth,0.098716,1.9,1,1.1,0,0,1,10498,249
1324,57392,1,4,4,viridis,409,fieldSmooth,0.098716,1.9,1,1.1,1,1,4,4244,244
1324,57393,1,5,5,viridis,409,fieldSmooth,0.098716,1.9,1,1.1,0,0,5,13532,238
1324,57394,1,6,6,viridis,409,fieldSmooth,0.098716,1.9,1,1.1,1,1,6,6490,237
1324,57395,1,7,7,viridis,409,fieldSmooth,0.098716,1.9,1,1.1,1,1,1,13970,239
1324,57396,1,8,8,viridis,409,fieldSmooth,0.098716,1.9,1,1.1,0,0,6,9467,244
1324,57397,1,9,9,viridis,409,fieldSmooth,0.098716,1.9,1,1.1,1,1,3,6242,243
1324,57407,3,1,19,blue-orange,499.941,fieldSmooth,0.098716,1.9,1,1.1,1,1,6,10611,238
1324,57408,3,2,20,blue-orange,499.941,fieldSmooth,0.098716,1.9,1,1.1,1,1,6,5978,241
1324,57409,3,3,21,blue-orange,499.941,fieldSmooth,0.098716,1.9,1,1.1,0,0,6,8866,240
1324,57410,3,4,22,blue-orange,499.941,fieldSmooth,0.098716,1.9,1,1.1,1,1,1,1850,239
1324,57411,3,5,23,blue-orange,499.941,fieldSmooth,0.098716,1.9,1,1.1,1,1,6,6994,236
1324,57412,3,6,24,blue-orange,499.941,fieldSmooth,0.098716,1.9,1,1.1,1,1,5,13650,238
1324,57413,3,7,25,blue-orange,499.941,fieldSmooth,0.098716,1.9,1,1.1,1,2,2,35283,241
1324,57414,3,8,26,blue-orange,499.941,fieldSmooth,0.098716,1.9,1,1.1,1,1,1,16571,240
1324,57415,3,9,27,blue-orange,499.941,fieldSmooth,0.098716,1.9,1,1.1,1,1,1,15306,240
1330,57668,4,1,28,jet,793.453,fieldSmooth,0.098716,1.9,1,1.1,1,1,3,10615,1140
1330,57669,4,2,29,jet,793.453,fieldSmooth,0.098716,1.9,1,1.1,1,1,1,6268,1124
1330,57670,4,3,30,jet,793.453,fieldSmooth,0.098716,1.9,1,1.1,1,1,3,26159,1205
1330,57671,4,4,31,jet,793.453,fieldSmooth,0.098716,1.9,1,1.1,1,1,1,27520,1246
1330,57672,4,5,32,jet,793.453,fieldSmooth,0.098716,1.9,1,1.1,1,1,2,5865,1111
1330,57673,4,6,33,jet,793.453,fieldSmooth,0.098716,1.9,1,1.1,1,1,2,3885,1207
1330,57674,4,7,34,jet,793.453,fieldSmooth,0.098716,1.9,1,1.1,1,1,3,3012,1076
1330,57675,4,8,35,jet,793.453,fieldSmooth,0.098716,1.9,1,1.1,1,1,3,10710,1122
1330,57676,4,9,36,jet,793.453,fieldSmooth,0.098716,1.9,1,1.1,1,1,6,25732,1254
1330,57641,1,1,1,blue,148.302,fieldSmooth,0.098716,1.9,1,1.1,0,0,4,7562,1266
1330,57642,1,2,2,blue,148.302,fieldSmooth,0.098716,1.9,1,1.1,0,0,3,10308,1102
1330,57643,1,3,3,blue,148.302,fieldSmooth,0.098716,1.9,1,1.1,0,0,6,18821,1170
1330,57644,1,4,4,blue,148.302,fieldSmooth,0.098716,1.9,1,1.1,1,1,4,7169,1101
1330,57645,1,5,5,blue,148.302,fieldSmooth,0.098716,1.9,1,1.1,1,1,3,10758,1133
1330,57646,1,6,6,blue,148.302,fieldSmooth,0.098716,1.9,1,1.1,0,0,6,21743,1104
1330,57647,1,7,7,blue,148.302,fieldSmooth,0.098716,1.9,1,1.1,1,1,6,14426,1169
1330,57648,1,8,8,blue,148.302,fieldSmooth,0.098716,1.9,1,1.1,1,1,1,12382,1120
1330,57649,1,9,9,blue,148.302,fieldSmooth,0.098716,1.9,1,1.1,1,2,5,7819,1096
1330,57659,3,1,19,viridis,409,fieldSmooth,0.098716,1.9,1,1.1,1,2,4,11625,1236
1330,57660,3,2,20,viridis,409,fieldSmooth,0.098716,1.9,1,1.1,1,1,4,5209,1190
1330,57661,3,3,21,viridis,409,fieldSmooth,0.098716,1.9,1,1.1,1,1,5,17022,1114
1330,57662,3,4,22,viridis,409,fieldSmooth,0.098716,1.9,1,1.1,1,1,1,5185,1094
1330,57663,3,5,23,viridis,409,fieldSmooth,0.098716,1.9,1,1.1,1,1,2,5739,1234
1330,57664,3,6,24,viridis,409,fieldSmooth,0.098716,1.9,1,1.1,1,2,6,8181,1140
1330,57665,3,7,25,viridis,409,fieldSmooth,0.098716,1.9,1,1.1,1,1,2,4757,1238
1330,57666,3,8,26,viridis,409,fieldSmooth,0.098716,1.9,1,1.1,0,0,1,14174,1122
1330,57667,3,9,27,viridis,409,fieldSmooth,0.098716,1.9,1,1.1,1,1,3,4303,1137
1330,57650,2,1,10,blue-orange,499.941,fieldSmooth,0.098716,1.9,1,1.1,1,1,3,8238,1186
1330,57651,2,2,11,blue-orange,499.941,fieldSmooth,0.098716,1.9,1,1.1,1,1,1,12045,1080
1330,57652,2,3,12,blue-orange,499.941,fieldSmooth,0.098716,1.9,1,1.1,1,1,5,6633,1102
1330,57653,2,4,13,blue-orange,499.941,fieldSmooth,0.098716,1.9,1,1.1,1,1,5,13052,1196
1330,57654,2,5,14,blue-orange,499.941,fieldSmooth,0.098716,1.9,1,1.1,1,1,5,14612,1104
1330,57655,2,6,15,blue-orange,499.941,fieldSmooth,0.098716,1.9,1,1.1,1,1,2,6775,1293
1330,57656,2,7,16,blue-orange,499.941,fieldSmooth,0.098716,1.9,1,1.1,1,1,2,4099,1091
1330,57657,2,8,17,blue-orange,499.941,fieldSmooth,0.098716,1.9,1,1.1,1,1,6,5332,1088
1330,57658,2,9,18,blue-orange,499.941,fieldSmooth,0.098716,1.9,1,1.1,1,1,3,13543,1106
1331,57497,1,1,1,jet,793.453,fieldSmooth,0.098716,1.9,1,1.1,1,1,6,5824,501
1331,57498,1,2,2,jet,793.453,fieldSmooth,0.098716,1.9,1,1.1,0,0,2,8685,787
1331,57499,1,3,3,jet,793.453,fieldSmooth,0.098716,1.9,1,1.1,0,0,4,4501,760
1331,57500,1,4,4,jet,793.453,fieldSmooth,0.098716,1.9,1,1.1,1,2,2,8226,690
1331,57501,1,5,5,jet,793.453,fieldSmooth,0.098716,1.9,1,1.1,0,0,6,7710,769
1331,57502,1,6,6,jet,793.453,fieldSmooth,0.098716,1.9,1,1.1,0,0,1,5633,698
1331,57503,1,7,7,jet,793.453,fieldSmooth,0.098716,1.9,1,1.1,1,1,5,7785,685
1331,57504,1,8,8,jet,793.453,fieldSmooth,0.098716,1.9,1,1.1,1,1,4,8898,728
1331,57505,1,9,9,jet,793.453,fieldSmooth,0.098716,1.9,1,1.1,1,2,2,8179,732
1331,57524,4,1,28,blue,148.302,fieldSmooth,0.098716,1.9,1,1.1,0,0,6,3439,693
1331,57525,4,2,29,blue,148.302,fieldSmooth,0.098716,1.9,1,1.1,1,1,3,3125,715
1331,57526,4,3,30,blue,148.302,fieldSmooth,0.098716,1.9,1,1.1,1,1,5,2688,726
1331,57527,4,4,31,blue,148.302,fieldSmooth,0.098716,1.9,1,1.1,0,0,6,4426,721
1331,57528,4,5,32,blue,148.302,fieldSmooth,0.098716,1.9,1,1.1,0,0,3,3710,691
1331,57529,4,6,33,blue,148.302,fieldSmooth,0.098716,1.9,1,1.1,1,2,1,3310,677
1331,57530,4,7,34,blue,148.302,fieldSmooth,0.098716,1.9,1,1.1,0,0,1,2710,699
1331,57531,4,8,35,blue,148.302,fieldSmooth,0.098716,1.9,1,1.1,0,0,6,4777,694
1331,57532,4,9,36,blue,148.302,fieldSmooth,0.098716,1.9,1,1.1,1,1,1,2017,672
1331,57506,2,1,10,viridis,409,fieldSmooth,0.098716,1.9,1,1.1,0,0,6,3911,694
1331,57507,2,2,11,viridis,409,fieldSmooth,0.098716,1.9,1,1.1,0,0,5,3760,687
1331,57508,2,3,12,viridis,409,fieldSmooth,0.098716,1.9,1,1.1,0,0,3,6268,681
1331,57509,2,4,13,viridis,409,fieldSmooth,0.098716,1.9,1,1.1,1,2,6,3860,665
1331,57510,2,5,14,viridis,409,fieldSmooth,0.098716,1.9,1,1.1,0,0,6,9858,685
1331,57511,2,6,15,viridis,409,fieldSmooth,0.098716,1.9,1,1.1,0,0,3,11173,679
1331,57512,2,7,16,viridis,409,fieldSmooth,0.098716,1.9,1,1.1,1,1,6,6896,704
1331,57513,2,8,17,viridis,409,fieldSmooth,0.098716,1.9,1,1.1,0,0,5,4694,715
1331,57514,2,9,18,viridis,409,fieldSmooth,0.098716,1.9,1,1.1,0,0,3,4117,798
1331,57515,3,1,19,blue-orange,499.941,fieldSmooth,0.098716,1.9,1,1.1,1,1,3,1969,703
1331,57516,3,2,20,blue-orange,499.941,fieldSmooth,0.098716,1.9,1,1.1,1,1,2,7723,857
1331,57517,3,3,21,blue-orange,499.941,fieldSmooth,0.098716,1.9,1,1.1,1,2,6,3390,693
1331,57518,3,4,22,blue-orange,499.941,fieldSmooth,0.098716,1.9,1,1.1,1,1,3,3675,726
1331,57519,3,5,23,blue-orange,499.941,fieldSmooth,0.098716,1.9,1,1.1,1,1,1,5479,667
1331,57520,3,6,24,blue-orange,499.941,fieldSmooth,0.098716,1.9,1,1.1,1,1,5,2397,740
1331,57521,3,7,25,blue-orange,499.941,fieldSmooth,0.098716,1.9,1,1.1,0,0,5,4269,661
1331,57522,3,8,26,blue-orange,499.941,fieldSmooth,0.098716,1.9,1,1.1,1,1,4,3446,712
1331,57523,3,9,27,blue-orange,499.941,fieldSmooth,0.098716,1.9,1,1.1,1,1,6,4448,643
1332,57587,3,1,19,jet,793.453,fieldSmooth,0.098716,1.9,1,1.1,0,0,4,9107,606
1332,57588,3,2,20,jet,793.453,fieldSmooth,0.098716,1.9,1,1.1,1,1,6,3492,598
1332,57589,3,3,21,jet,793.453,fieldSmooth,0.098716,1.9,1,1.1,0,0,2,7110,598
1332,57590,3,4,22,jet,793.453,fieldSmooth,0.098716,1.9,1,1.1,0,0,5,3736,603
1332,57591,3,5,23,jet,793.453,fieldSmooth,0.098716,1.9,1,1.1,1,1,5,5845,590
1332,57592,3,6,24,jet,793.453,fieldSmooth,0.098716,1.9,1,1.1,1,1,3,3258,584
1332,57593,3,7,25,jet,793.453,fieldSmooth,0.098716,1.9,1,1.1,1,1,3,3217,627
1332,57594,3,8,26,jet,793.453,fieldSmooth,0.098716,1.9,1,1.1,1,2,3,2272,604
1332,57595,3,9,27,jet,793.453,fieldSmooth,0.098716,1.9,1,1.1,0,0,4,6531,600
1332,57596,4,1,28,blue,148.302,fieldSmooth,0.098716,1.9,1,1.1,0,0,4,4493,601
1332,57597,4,2,29,blue,148.302,fieldSmooth,0.098716,1.9,1,1.1,0,0,6,4717,591
1332,57598,4,3,30,blue,148.302,fieldSmooth,0.098716,1.9,1,1.1,1,2,5,5019,592
1332,57599,4,4,31,blue,148.302,fieldSmooth,0.098716,1.9,1,1.1,0,0,5,5401,595
1332,57600,4,5,32,blue,148.302,fieldSmooth,0.098716,1.9,1,1.1,0,0,6,2527,589
1332,57601,4,6,33,blue,148.302,fieldSmooth,0.098716,1.9,1,1.1,1,1,3,3340,600
1332,57602,4,7,34,blue,148.302,fieldSmooth,0.098716,1.9,1,1.1,1,1,3,1849,594
1332,57603,4,8,35,blue,148.302,fieldSmooth,0.098716,1.9,1,1.1,0,0,3,3912,587
1332,57604,4,9,36,blue,148.302,fieldSmooth,0.098716,1.9,1,1.1,0,0,1,2353,595
1332,57578,2,1,10,viridis,409,fieldSmooth,0.098716,1.9,1,1.1,1,2,5,14533,603
1332,57579,2,2,11,viridis,409,fieldSmooth,0.098716,1.9,1,1.1,0,0,3,14096,594
1332,57580,2,3,12,viridis,409,fieldSmooth,0.098716,1.9,1,1.1,1,2,6,3950,606
1332,57581,2,4,13,viridis,409,fieldSmooth,0.098716,1.9,1,1.1,0,0,6,6705,595
1332,57582,2,5,14,viridis,409,fieldSmooth,0.098716,1.9,1,1.1,1,2,6,3052,591
1332,57583,2,6,15,viridis,409,fieldSmooth,0.098716,1.9,1,1.1,0,0,6,2948,591
1332,57584,2,7,16,viridis,409,fieldSmooth,0.098716,1.9,1,1.1,0,0,3,7848,588
1332,57585,2,8,17,viridis,409,fieldSmooth,0.098716,1.9,1,1.1,1,1,1,3458,592
1332,57586,2,9,18,viridis,409,fieldSmooth,0.098716,1.9,1,1.1,0,0,4,3282,587
1332,57569,1,1,1,blue-orange,499.941,fieldSmooth,0.098716,1.9,1,1.1,0,0,6,6805,1496
1332,57570,1,2,2,blue-orange,499.941,fieldSmooth,0.098716,1.9,1,1.1,1,1,2,4207,643
1332,57571,1,3,3,blue-orange,499.941,fieldSmooth,0.098716,1.9,1,1.1,1,1,3,1744,613
1332,57572,1,4,4,blue-orange,499.941,fieldSmooth,0.098716,1.9,1,1.1,0,0,3,13131,593
1332,57573,1,5,5,blue-orange,499.941,fieldSmooth,0.098716,1.9,1,1.1,1,2,4,4285,591
1332,57574,1,6,6,blue-orange,499.941,fieldSmooth,0.098716,1.9,1,1.1,0,0,6,5271,604
1332,57575,1,7,7,blue-orange,499.941,fieldSmooth,0.098716,1.9,1,1.1,1,2,4,5415,596
1332,57576,1,8,8,blue-orange,499.941,fieldSmooth,0.098716,1.9,1,1.1,0,0,3,3530,593
1332,57577,1,9,9,blue-orange,499.941,fieldSmooth,0.098716,1.9,1,1.1,0,0,3,2801,595
1333,57623,3,1,19,jet,793.453,fieldSmooth,0.098716,1.9,1,1.1,1,1,3,7393,552
1333,57624,3,2,20,jet,793.453,fieldSmooth,0.098716,1.9,1,1.1,1,1,6,4333,500
1333,57625,3,3,21,jet,793.453,fieldSmooth,0.098716,1.9,1,1.1,1,1,6,3882,492
1333,57626,3,4,22,jet,793.453,fieldSmooth,0.098716,1.9,1,1.1,1,1,3,6737,490
1333,57627,3,5,23,jet,793.453,fieldSmooth,0.098716,1.9,1,1.1,0,0,6,6062,538
1333,57628,3,6,24,jet,793.453,fieldSmooth,0.098716,1.9,1,1.1,0,0,3,4763,594
1333,57629,3,7,25,jet,793.453,fieldSmooth,0.098716,1.9,1,1.1,1,1,1,4755,465
1333,57630,3,8,26,jet,793.453,fieldSmooth,0.098716,1.9,1,1.1,0,0,3,4610,535
1333,57631,3,9,27,jet,793.453,fieldSmooth,0.098716,1.9,1,1.1,1,1,6,19980,464
1333,57632,4,1,28,blue,148.302,fieldSmooth,0.098716,1.9,1,1.1,1,1,6,4571,532
1333,57633,4,2,29,blue,148.302,fieldSmooth,0.098716,1.9,1,1.1,0,0,6,6671,529
1333,57634,4,3,30,blue,148.302,fieldSmooth,0.098716,1.9,1,1.1,1,1,1,3453,617
1333,57635,4,4,31,blue,148.302,fieldSmooth,0.098716,1.9,1,1.1,1,2,5,3737,555
1333,57636,4,5,32,blue,148.302,fieldSmooth,0.098716,1.9,1,1.1,0,0,3,5200,468
1333,57637,4,6,33,blue,148.302,fieldSmooth,0.098716,1.9,1,1.1,0,0,5,4676,618
1333,57638,4,7,34,blue,148.302,fieldSmooth,0.098716,1.9,1,1.1,0,0,3,3818,552
1333,57639,4,8,35,blue,148.302,fieldSmooth,0.098716,1.9,1,1.1,1,1,1,6045,555
1333,57640,4,9,36,blue,148.302,fieldSmooth,0.098716,1.9,1,1.1,1,2,1,3374,525
1333,57605,1,1,1,viridis,409,fieldSmooth,0.098716,1.9,1,1.1,0,0,6,7048,614
1333,57606,1,2,2,viridis,409,fieldSmooth,0.098716,1.9,1,1.1,1,2,6,6250,595
1333,57607,1,3,3,viridis,409,fieldSmooth,0.098716,1.9,1,1.1,1,1,4,3593,675
1333,57608,1,4,4,viridis,409,fieldSmooth,0.098716,1.9,1,1.1,0,0,5,4729,518
1333,57609,1,5,5,viridis,409,fieldSmooth,0.098716,1.9,1,1.1,1,1,5,6005,728
1333,57610,1,6,6,viridis,409,fieldSmooth,0.098716,1.9,1,1.1,1,2,6,2686,492
1333,57611,1,7,7,viridis,409,fieldSmooth,0.098716,1.9,1,1.1,1,1,5,2405,546
1333,57612,1,8,8,viridis,409,fieldSmooth,0.098716,1.9,1,1.1,0,0,3,5382,475
1333,57613,1,9,9,viridis,409,fieldSmooth,0.098716,1.9,1,1.1,0,0,6,3706,543
1333,57614,2,1,10,blue-orange,499.941,fieldSmooth,0.098716,1.9,1,1.1,1,1,2,10008,550
1333,57615,2,2,11,blue-orange,499.941,fieldSmooth,0.098716,1.9,1,1.1,0,0,4,5787,490
1333,57616,2,3,12,blue-orange,499.941,fieldSmooth,0.098716,1.9,1,1.1,1,1,4,22306,558
1333,57617,2,4,13,blue-orange,499.941,fieldSmooth,0.098716,1.9,1,1.1,0,0,3,4371,544
1333,57618,2,5,14,blue-orange,499.941,fieldSmooth,0.098716,1.9,1,1.1,1,1,2,4238,455
1333,57619,2,6,15,blue-orange,499.941,fieldSmooth,0.098716,1.9,1,1.1,1,1,6,6449,478
1333,57620,2,7,16,blue-orange,499.941,fieldSmooth,0.098716,1.9,1,1.1,1,1,1,3530,502
1333,57621,2,8,17,blue-orange,499.941,fieldSmooth,0.098716,1.9,1,1.1,0,0,5,3893,479
1333,57622,2,9,18,blue-orange,499.941,fieldSmooth,0.098716,1.9,1,1.1,1,1,6,12760,517
1336,57884,4,1,28,jet,793.453,fieldSmooth,0.098716,1.9,1,1.1,1,2,4,24036,465
1336,57885,4,2,29,jet,793.453,fieldSmooth,0.098716,1.9,1,1.1,1,1,4,8990,445
1336,57886,4,3,30,jet,793.453,fieldSmooth,0.098716,1.9,1,1.1,1,1,3,10563,449
1336,57887,4,4,31,jet,793.453,fieldSmooth,0.098716,1.9,1,1.1,1,1,6,13079,440
1336,57888,4,5,32,jet,793.453,fieldSmooth,0.098716,1.9,1,1.1,1,1,4,17506,431
1336,57889,4,6,33,jet,793.453,fieldSmooth,0.098716,1.9,1,1.1,1,1,6,5802,432
1336,57890,4,7,34,jet,793.453,fieldSmooth,0.098716,1.9,1,1.1,1,1,1,11283,427
1336,57891,4,8,35,jet,793.453,fieldSmooth,0.098716,1.9,1,1.1,1,1,3,4075,465
1336,57892,4,9,36,jet,793.453,fieldSmooth,0.098716,1.9,1,1.1,1,1,5,7184,458
1336,57857,1,1,1,blue,148.302,fieldSmooth,0.098716,1.9,1,1.1,1,1,2,22754,511
1336,57858,1,2,2,blue,148.302,fieldSmooth,0.098716,1.9,1,1.1,1,1,2,27206,490
1336,57859,1,3,3,blue,148.302,fieldSmooth,0.098716,1.9,1,1.1,1,1,4,12785,456
1336,57860,1,4,4,blue,148.302,fieldSmooth,0.098716,1.9,1,1.1,1,1,2,18012,429
1336,57861,1,5,5,blue,148.302,fieldSmooth,0.098716,1.9,1,1.1,1,1,5,18102,444
1336,57862,1,6,6,blue,148.302,fieldSmooth,0.098716,1.9,1,1.1,1,2,5,32929,456
1336,57863,1,7,7,blue,148.302,fieldSmooth,0.098716,1.9,1,1.1,1,1,5,33741,452
1336,57864,1,8,8,blue,148.302,fieldSmooth,0.098716,1.9,1,1.1,1,1,1,44947,436
1336,57865,1,9,9,blue,148.302,fieldSmooth,0.098716,1.9,1,1.1,1,1,6,13698,435
1336,57866,2,1,10,viridis,409,fieldSmooth,0.098716,1.9,1,1.1,1,2,2,16589,478
1336,57867,2,2,11,viridis,409,fieldSmooth,0.098716,1.9,1,1.1,0,0,6,57945,442
1336,57868,2,3,12,viridis,409,fieldSmooth,0.098716,1.9,1,1.1,1,2,1,5184,437
1336,57869,2,4,13,viridis,409,fieldSmooth,0.098716,1.9,1,1.1,1,1,2,50490,472
1336,57870,2,5,14,viridis,409,fieldSmooth,0.098716,1.9,1,1.1,1,1,3,16557,461
1336,57871,2,6,15,viridis,409,fieldSmooth,0.098716,1.9,1,1.1,1,2,5,23073,461
1336,57872,2,7,16,viridis,409,fieldSmooth,0.098716,1.9,1,1.1,0,0,6,9674,438
1336,57873,2,8,17,viridis,409,fieldSmooth,0.098716,1.9,1,1.1,1,1,1,35114,431
1336,57874,2,9,18,viridis,409,fieldSmooth,0.098716,1.9,1,1.1,0,0,2,24403,449
1336,57875,3,1,19,blue-orange,499.941,fieldSmooth,0.098716,1.9,1,1.1,1,1,1,16915,434
1336,57876,3,2,20,blue-orange,499.941,fieldSmooth,0.098716,1.9,1,1.1,1,1,3,9765,439
1336,57877,3,3,21,blue-orange,499.941,fieldSmooth,0.098716,1.9,1,1.1,1,1,1,28847,446
1336,57878,3,4,22,blue-orange,499.941,fieldSmooth,0.098716,1.9,1,1.1,1,2,6,16014,434
1336,57879,3,5,23,blue-orange,499.941,fieldSmooth,0.098716,1.9,1,1.1,1,1,2,20311,454
1336,57880,3,6,24,blue-orange,499.941,fieldSmooth,0.098716,1.9,1,1.1,1,1,2,16531,437
1336,57881,3,7,25,blue-orange,499.941,fieldSmooth,0.098716,1.9,1,1.1,1,2,5,21018,464
1336,57882,3,8,26,blue-orange,499.941,fieldSmooth,0.098716,1.9,1,1.1,0,0,5,24213,434
1336,57883,3,9,27,blue-orange,499.941,fieldSmooth,0.098716,1.9,1,1.1,1,1,3,30843,456
1337,57965,1,1,1,jet,793.453,fieldSmooth,0.098716,1.9,1,1.1,1,2,3,15265,503
1337,57966,1,2,2,jet,793.453,fieldSmooth,0.098716,1.9,1,1.1,1,1,5,7464,287
1337,57967,1,3,3,jet,793.453,fieldSmooth,0.098716,1.9,1,1.1,1,2,6,12554,283
1337,57968,1,4,4,jet,793.453,fieldSmooth,0.098716,1.9,1,1.1,1,1,6,5101,283
1337,57969,1,5,5,jet,793.453,fieldSmooth,0.098716,1.9,1,1.1,1,1,6,10325,298
1337,57970,1,6,6,jet,793.453,fieldSmooth,0.098716,1.9,1,1.1,1,2,6,33732,283
1337,57971,1,7,7,jet,793.453,fieldSmooth,0.098716,1.9,1,1.1,0,0,1,11577,282
1337,57972,1,8,8,jet,793.453,fieldSmooth,0.098716,1.9,1,1.1,0,0,1,3207,282
1337,57973,1,9,9,jet,793.453,fieldSmooth,0.098716,1.9,1,1.1,1,1,6,22266,281
1337,57992,4,1,28,blue,148.302,fieldSmooth,0.098716,1.9,1,1.1,0,0,1,9168,280
1337,57993,4,2,29,blue,148.302,fieldSmooth,0.098716,1.9,1,1.1,0,0,1,5949,284
1337,57994,4,3,30,blue,148.302,fieldSmooth,0.098716,1.9,1,1.1,0,0,3,9958,281
1337,57995,4,4,31,blue,148.302,fieldSmooth,0.098716,1.9,1,1.1,0,0,3,9852,273
1337,57996,4,5,32,blue,148.302,fieldSmooth,0.098716,1.9,1,1.1,0,0,6,4966,294
1337,57997,4,6,33,blue,148.302,fieldSmooth,0.098716,1.9,1,1.1,0,0,6,4244,276
1337,57998,4,7,34,blue,148.302,fieldSmooth,0.098716,1.9,1,1.1,1,1,6,6813,276
1337,57999,4,8,35,blue,148.302,fieldSmooth,0.098716,1.9,1,1.1,0,0,3,6274,284
1337,58000,4,9,36,blue,148.302,fieldSmooth,0.098716,1.9,1,1.1,0,0,4,5047,280
1337,57983,3,1,19,viridis,409,fieldSmooth,0.098716,1.9,1,1.1,1,1,4,9408,318
1337,57984,3,2,20,viridis,409,fieldSmooth,0.098716,1.9,1,1.1,1,2,1,10505,299
1337,57985,3,3,21,viridis,409,fieldSmooth,0.098716,1.9,1,1.1,0,0,1,7131,281
1337,57986,3,4,22,viridis,409,fieldSmooth,0.098716,1.9,1,1.1,1,2,6,10690,294
1337,57987,3,5,23,viridis,409,fieldSmooth,0.098716,1.9,1,1.1,1,1,4,4663,297
1337,57988,3,6,24,viridis,409,fieldSmooth,0.098716,1.9,1,1.1,0,0,1,5287,280
1337,57989,3,7,25,viridis,409,fieldSmooth,0.098716,1.9,1,1.1,0,0,6,5498,283
1337,57990,3,8,26,viridis,409,fieldSmooth,0.098716,1.9,1,1.1,1,1,3,8807,279
1337,57991,3,9,27,viridis,409,fieldSmooth,0.098716,1.9,1,1.1,1,2,3,10569,280
1337,57974,2,1,10,blue-orange,499.941,fieldSmooth,0.098716,1.9,1,1.1,1,1,4,4851,281
1337,57975,2,2,11,blue-orange,499.941,fieldSmooth,0.098716,1.9,1,1.1,1,1,6,2843,274
1337,57976,2,3,12,blue-orange,499.941,fieldSmooth,0.098716,1.9,1,1.1,0,0,1,5776,276
1337,57977,2,4,13,blue-orange,499.941,fieldSmooth,0.098716,1.9,1,1.1,1,1,1,6440,286
1337,57978,2,5,14,blue-orange,499.941,fieldSmooth,0.098716,1.9,1,1.1,1,1,1,8110,278
1337,57979,2,6,15,blue-orange,499.941,fieldSmooth,0.098716,1.9,1,1.1,1,1,4,6184,283
1337,57980,2,7,16,blue-orange,499.941,fieldSmooth,0.098716,1.9,1,1.1,1,1,2,6016,275
1337,57981,2,8,17,blue-orange,499.941,fieldSmooth,0.098716,1.9,1,1.1,0,0,1,5207,278
1337,57982,2,9,18,blue-orange,499.941,fieldSmooth,0.098716,1.9,1,1.1,1,1,6,5790,289
1338,57695,3,1,19,jet,793.453,fieldSmooth,0.098716,1.9,1,1.1,1,1,2,3537,1941
1338,57696,3,2,20,jet,793.453,fieldSmooth,0.098716,1.9,1,1.1,1,1,5,2732,1595
1338,57697,3,3,21,jet,793.453,fieldSmooth,0.098716,1.9,1,1.1,1,1,4,2777,1547
1338,57698,3,4,22,jet,793.453,fieldSmooth,0.098716,1.9,1,1.1,1,1,4,4020,1552
1338,57699,3,5,23,jet,793.453,fieldSmooth,0.098716,1.9,1,1.1,1,1,1,3717,1515
1338,57700,3,6,24,jet,793.453,fieldSmooth,0.098716,1.9,1,1.1,1,1,6,4441,1465
1338,57701,3,7,25,jet,793.453,fieldSmooth,0.098716,1.9,1,1.1,1,1,5,2262,1478
1338,57702,3,8,26,jet,793.453,fieldSmooth,0.098716,1.9,1,1.1,0,0,5,4701,1336
1338,57703,3,9,27,jet,793.453,fieldSmooth,0.098716,1.9,1,1.1,1,2,1,1250,1313
1338,57677,1,1,1,blue,148.302,fieldSmooth,0.098716,1.9,1,1.1,1,1,4,7182,922
1338,57678,1,2,2,blue,148.302,fieldSmooth,0.098716,1.9,1,1.1,1,1,1,8582,1607
1338,57679,1,3,3,blue,148.302,fieldSmooth,0.098716,1.9,1,1.1,1,1,2,3697,3209
1338,57680,1,4,4,blue,148.302,fieldSmooth,0.098716,1.9,1,1.1,0,0,3,3655,1691
1338,57681,1,5,5,blue,148.302,fieldSmooth,0.098716,1.9,1,1.1,0,0,1,4144,1423
1338,57682,1,6,6,blue,148.302,fieldSmooth,0.098716,1.9,1,1.1,0,0,3,3483,1453
1338,57683,1,7,7,blue,148.302,fieldSmooth,0.098716,1.9,1,1.1,0,0,4,3599,1777
1338,57684,1,8,8,blue,148.302,fieldSmooth,0.098716,1.9,1,1.1,1,1,2,2954,1500
1338,57685,1,9,9,blue,148.302,fieldSmooth,0.098716,1.9,1,1.1,0,0,3,2475,1720
1338,57704,4,1,28,viridis,409,fieldSmooth,0.098716,1.9,1,1.1,1,1,5,2383,1480
1338,57705,4,2,29,viridis,409,fieldSmooth,0.098716,1.9,1,1.1,0,0,1,1377,1271
1338,57706,4,3,30,viridis,409,fieldSmooth,0.098716,1.9,1,1.1,0,0,2,1447,1517
1338,57707,4,4,31,viridis,409,fieldSmooth,0.098716,1.9,1,1.1,0,0,2,3305,1475
1338,57708,4,5,32,viridis,409,fieldSmooth,0.098716,1.9,1,1.1,0,0,1,1958,1660
1338,57709,4,6,33,viridis,409,fieldSmooth,0.098716,1.9,1,1.1,1,1,6,3279,1636
1338,57710,4,7,34,viridis,409,fieldSmooth,0.098716,1.9,1,1.1,0,0,1,2116,1718
1338,57711,4,8,35,viridis,409,fieldSmooth,0.098716,1.9,1,1.1,1,1,3,3276,1333
1338,57712,4,9,36,viridis,409,fieldSmooth,0.098716,1.9,1,1.1,0,0,2,9518,1532
1338,57686,2,1,10,blue-orange,499.941,fieldSmooth,0.098716,1.9,1,1.1,0,0,6,3695,1661
1338,57687,2,2,11,blue-orange,499.941,fieldSmooth,0.098716,1.9,1,1.1,0,0,4,6022,1531
1338,57688,2,3,12,blue-orange,499.941,fieldSmooth,0.098716,1.9,1,1.1,0,0,5,6071,1458
1338,57689,2,4,13,blue-orange,499.941,fieldSmooth,0.098716,1.9,1,1.1,0,0,2,4120,1468
1338,57690,2,5,14,blue-orange,499.941,fieldSmooth,0.098716,1.9,1,1.1,0,0,2,4432,1487
1338,57691,2,6,15,blue-orange,499.941,fieldSmooth,0.098716,1.9,1,1.1,1,2,2,4995,1548
1338,57692,2,7,16,blue-orange,499.941,fieldSmooth,0.098716,1.9,1,1.1,1,1,2,2439,1556
1338,57693,2,8,17,blue-orange,499.941,fieldSmooth,0.098716,1.9,1,1.1,1,1,4,4629,1568
1338,57694,2,9,18,blue-orange,499.941,fieldSmooth,0.098716,1.9,1,1.1,1,1,6,4255,1751
1339,57740,4,1,28,jet,793.453,fieldSmooth,0.098716,1.9,1,1.1,1,1,1,5072,1479
1339,57741,4,2,29,jet,793.453,fieldSmooth,0.098716,1.9,1,1.1,1,1,1,3413,1674
1339,57742,4,3,30,jet,793.453,fieldSmooth,0.098716,1.9,1,1.1,1,1,2,3363,1493
1339,57743,4,4,31,jet,793.453,fieldSmooth,0.098716,1.9,1,1.1,1,1,3,13341,1470
1339,57744,4,5,32,jet,793.453,fieldSmooth,0.098716,1.9,1,1.1,1,1,3,2734,1521
1339,57745,4,6,33,jet,793.453,fieldSmooth,0.098716,1.9,1,1.1,1,1,3,5766,1066
1339,57746,4,7,34,jet,793.453,fieldSmooth,0.098716,1.9,1,1.1,1,1,1,3660,1281
1339,57747,4,8,35,jet,793.453,fieldSmooth,0.098716,1.9,1,1.1,1,1,3,36433,1339
1339,57748,4,9,36,jet,793.453,fieldSmooth,0.098716,1.9,1,1.1,1,1,6,2817,1445
1339,57731,3,1,19,blue,148.302,fieldSmooth,0.098716,1.9,1,1.1,1,1,1,23002,1401
1339,57732,3,2,20,blue,148.302,fieldSmooth,0.098716,1.9,1,1.1,1,1,3,23147,1486
1339,57733,3,3,21,blue,148.302,fieldSmooth,0.098716,1.9,1,1.1,1,1,4,13834,1247
1339,57734,3,4,22,blue,148.302,fieldSmooth,0.098716,1.9,1,1.1,1,1,1,7747,1524
1339,57735,3,5,23,blue,148.302,fieldSmooth,0.098716,1.9,1,1.1,1,1,4,7690,851
1339,57736,3,6,24,blue,148.302,fieldSmooth,0.098716,1.9,1,1.1,1,1,2,14328,1134
1339,57737,3,7,25,blue,148.302,fieldSmooth,0.098716,1.9,1,1.1,1,1,2,5934,1375
1339,57738,3,8,26,blue,148.302,fieldSmooth,0.098716,1.9,1,1.1,1,1,5,21729,1326
1339,57739,3,9,27,blue,148.302,fieldSmooth,0.098716,1.9,1,1.1,0,0,5,29442,1275
1339,57722,2,1,10,viridis,409,fieldSmooth,0.098716,1.9,1,1.1,1,1,1,5452,1541
1339,57723,2,2,11,viridis,409,fieldSmooth,0.098716,1.9,1,1.1,1,1,4,10460,1414
1339,57724,2,3,12,viridis,409,fieldSmooth,0.098716,1.9,1,1.1,0,0,2,10806,1473
1339,57725,2,4,13,viridis,409,fieldSmooth,0.098716,1.9,1,1.1,1,2,3,5392,1405
1339,57726,2,5,14,viridis,409,fieldSmooth,0.098716,1.9,1,1.1,1,1,5,3691,1472
1339,57727,2,6,15,viridis,409,fieldSmooth,0.098716,1.9,1,1.1,1,1,1,2867,1361
1339,57728,2,7,16,viridis,409,fieldSmooth,0.098716,1.9,1,1.1,1,1,2,6807,1492
1339,57729,2,8,17,viridis,409,fieldSmooth,0.098716,1.9,1,1.1,1,1,6,11033,1410
1339,57730,2,9,18,viridis,409,fieldSmooth,0.098716,1.9,1,1.1,1,1,5,12755,1427
1339,57713,1,1,1,blue-orange,499.941,fieldSmooth,0.098716,1.9,1,1.1,1,1,1,6553,1595
1339,57714,1,2,2,blue-orange,499.941,fieldSmooth,0.098716,1.9,1,1.1,1,1,4,10025,1425
1339,57715,1,3,3,blue-orange,499.941,fieldSmooth,0.098716,1.9,1,1.1,1,1,4,6258,1494
1339,57716,1,4,4,blue-orange,499.941,fieldSmooth,0.098716,1.9,1,1.1,1,1,6,3433,1319
1339,57717,1,5,5,blue-orange,499.941,fieldSmooth,0.098716,1.9,1,1.1,1,1,3,3104,1074
1339,57718,1,6,6,blue-orange,499.941,fieldSmooth,0.098716,1.9,1,1.1,1,1,1,15563,1514
1339,57719,1,7,7,blue-orange,499.941,fieldSmooth,0.098716,1.9,1,1.1,1,1,4,9586,1349
1339,57720,1,8,8,blue-orange,499.941,fieldSmooth,0.098716,1.9,1,1.1,1,1,5,8044,1442
1339,57721,1,9,9,blue-orange,499.941,fieldSmooth,0.098716,1.9,1,1.1,1,1,5,9454,971
1340,57947,3,1,19,jet,793.453,fieldSmooth,0.098716,1.9,1,1.1,1,1,6,7643,694
1340,57948,3,2,20,jet,793.453,fieldSmooth,0.098716,1.9,1,1.1,1,1,4,15975,703
1340,57949,3,3,21,jet,793.453,fieldSmooth,0.098716,1.9,1,1.1,1,1,5,12768,642
1340,57950,3,4,22,jet,793.453,fieldSmooth,0.098716,1.9,1,1.1,1,1,3,17455,738
1340,57951,3,5,23,jet,793.453,fieldSmooth,0.098716,1.9,1,1.1,1,1,1,8039,574
1340,57952,3,6,24,jet,793.453,fieldSmooth,0.098716,1.9,1,1.1,1,1,6,5011,731
1340,57953,3,7,25,jet,793.453,fieldSmooth,0.098716,1.9,1,1.1,1,1,2,16463,603
1340,57954,3,8,26,jet,793.453,fieldSmooth,0.098716,1.9,1,1.1,1,1,5,25438,700
1340,57955,3,9,27,jet,793.453,fieldSmooth,0.098716,1.9,1,1.1,1,1,4,25133,600
1340,57956,4,1,28,blue,148.302,fieldSmooth,0.098716,1.9,1,1.1,0,0,5,21677,656
1340,57957,4,2,29,blue,148.302,fieldSmooth,0.098716,1.9,1,1.1,0,0,6,6331,718
1340,57958,4,3,30,blue,148.302,fieldSmooth,0.098716,1.9,1,1.1,1,2,6,3277,626
1340,57959,4,4,31,blue,148.302,fieldSmooth,0.098716,1.9,1,1.1,1,2,2,9052,617
1340,57960,4,5,32,blue,148.302,fieldSmooth,0.098716,1.9,1,1.1,1,2,2,11117,606
1340,57961,4,6,33,blue,148.302,fieldSmooth,0.098716,1.9,1,1.1,1,2,2,12666,582
1340,57962,4,7,34,blue,148.302,fieldSmooth,0.098716,1.9,1,1.1,1,2,4,19311,706
1340,57963,4,8,35,blue,148.302,fieldSmooth,0.098716,1.9,1,1.1,1,2,5,20321,593
1340,57964,4,9,36,blue,148.302,fieldSmooth,0.098716,1.9,1,1.1,1,2,1,5828,631
1340,57938,2,1,10,viridis,409,fieldSmooth,0.098716,1.9,1,1.1,1,1,6,31533,1132
1340,57939,2,2,11,viridis,409,fieldSmooth,0.098716,1.9,1,1.1,1,1,5,28060,877
1340,57940,2,3,12,viridis,409,fieldSmooth,0.098716,1.9,1,1.1,1,2,1,5527,604
1340,57941,2,4,13,viridis,409,fieldSmooth,0.098716,1.9,1,1.1,1,2,4,7821,573
1340,57942,2,5,14,viridis,409,fieldSmooth,0.098716,1.9,1,1.1,1,2,1,17340,582
1340,57943,2,6,15,viridis,409,fieldSmooth,0.098716,1.9,1,1.1,1,2,5,7540,579
1340,57944,2,7,16,viridis,409,fieldSmooth,0.098716,1.9,1,1.1,1,1,5,7576,588
1340,57945,2,8,17,viridis,409,fieldSmooth,0.098716,1.9,1,1.1,1,1,2,16180,713
1340,57946,2,9,18,viridis,409,fieldSmooth,0.098716,1.9,1,1.1,1,1,3,14993,728
1340,57929,1,1,1,blue-orange,499.941,fieldSmooth,0.098716,1.9,1,1.1,1,1,5,7843,974
1340,57930,1,2,2,blue-orange,499.941,fieldSmooth,0.098716,1.9,1,1.1,1,1,3,9153,632
1340,57931,1,3,3,blue-orange,499.941,fieldSmooth,0.098716,1.9,1,1.1,1,1,2,5972,702
1340,57932,1,4,4,blue-orange,499.941,fieldSmooth,0.098716,1.9,1,1.1,1,1,1,7585,727
1340,57933,1,5,5,blue-orange,499.941,fieldSmooth,0.098716,1.9,1,1.1,1,1,5,177535,636
1340,57934,1,6,6,blue-orange,499.941,fieldSmooth,0.098716,1.9,1,1.1,1,1,6,6518,1002
1340,57935,1,7,7,blue-orange,499.941,fieldSmooth,0.098716,1.9,1,1.1,1,2,5,22165,695
1340,57936,1,8,8,blue-orange,499.941,fieldSmooth,0.098716,1.9,1,1.1,0,0,4,21697,600
1340,57937,1,9,9,blue-orange,499.941,fieldSmooth,0.098716,1.9,1,1.1,1,1,1,481772,746
1343,58055,3,1,19,jet,793.453,fieldSmooth,0.098716,1.9,1,1.1,1,1,2,4047,901
1343,58056,3,2,20,jet,793.453,fieldSmooth,0.098716,1.9,1,1.1,0,0,6,5074,1019
1343,58057,3,3,21,jet,793.453,fieldSmooth,0.098716,1.9,1,1.1,1,1,2,7696,901
1343,58058,3,4,22,jet,793.453,fieldSmooth,0.098716,1.9,1,1.1,1,1,6,3216,984
1343,58059,3,5,23,jet,793.453,fieldSmooth,0.098716,1.9,1,1.1,1,2,3,16483,944
1343,58060,3,6,24,jet,793.453,fieldSmooth,0.098716,1.9,1,1.1,1,1,4,3176,962
1343,58061,3,7,25,jet,793.453,fieldSmooth,0.098716,1.9,1,1.1,1,1,2,3345,930
1343,58062,3,8,26,jet,793.453,fieldSmooth,0.098716,1.9,1,1.1,0,0,6,3972,940
1343,58063,3,9,27,jet,793.453,fieldSmooth,0.098716,1.9,1,1.1,1,1,5,3085,974
1343,58037,1,1,1,blue,148.302,fieldSmooth,0.098716,1.9,1,1.1,1,1,6,11197,629
1343,58038,1,2,2,blue,148.302,fieldSmooth,0.098716,1.9,1,1.1,1,1,4,6892,956
1343,58039,1,3,3,blue,148.302,fieldSmooth,0.098716,1.9,1,1.1,1,2,2,4157,977
1343,58040,1,4,4,blue,148.302,fieldSmooth,0.098716,1.9,1,1.1,1,1,2,5004,923
1343,58041,1,5,5,blue,148.302,fieldSmooth,0.098716,1.9,1,1.1,0,0,1,4827,992
1343,58042,1,6,6,blue,148.302,fieldSmooth,0.098716,1.9,1,1.1,0,0,1,4433,1015
1343,58043,1,7,7,blue,148.302,fieldSmooth,0.098716,1.9,1,1.1,0,0,3,13278,1064
1343,58044,1,8,8,blue,148.302,fieldSmooth,0.098716,1.9,1,1.1,0,0,1,3762,908
1343,58045,1,9,9,blue,148.302,fieldSmooth,0.098716,1.9,1,1.1,0,0,5,4899,951
1343,58064,4,1,28,viridis,409,fieldSmooth,0.098716,1.9,1,1.1,0,0,5,7336,951
1343,58065,4,2,29,viridis,409,fieldSmooth,0.098716,1.9,1,1.1,0,0,4,6096,1022
1343,58066,4,3,30,viridis,409,fieldSmooth,0.098716,1.9,1,1.1,0,0,6,3005,960
1343,58067,4,4,31,viridis,409,fieldSmooth,0.098716,1.9,1,1.1,0,0,5,2476,1004
1343,58068,4,5,32,viridis,409,fieldSmooth,0.098716,1.9,1,1.1,0,0,4,2437,952
1343,58069,4,6,33,viridis,409,fieldSmooth,0.098716,1.9,1,1.1,1,2,5,2351,955
1343,58070,4,7,34,viridis,409,fieldSmooth,0.098716,1.9,1,1.1,1,2,5,5475,1022
1343,58071,4,8,35,viridis,409,fieldSmooth,0.098716,1.9,1,1.1,0,0,4,3776,990
1343,58072,4,9,36,viridis,409,fieldSmooth,0.098716,1.9,1,1.1,0,0,5,5201,957
1343,58046,2,1,10,blue-orange,499.941,fieldSmooth,0.098716,1.9,1,1.1,1,1,1,3518,924
1343,58047,2,2,11,blue-orange,499.941,fieldSmooth,0.098716,1.9,1,1.1,1,1,6,3988,923
1343,58048,2,3,12,blue-orange,499.941,fieldSmooth,0.098716,1.9,1,1.1,0,0,1,4644,946
1343,58049,2,4,13,blue-orange,499.941,fieldSmooth,0.098716,1.9,1,1.1,1,2,3,4048,924
1343,58050,2,5,14,blue-orange,499.941,fieldSmooth,0.098716,1.9,1,1.1,1,1,2,7719,990
1343,58051,2,6,15,blue-orange,499.941,fieldSmooth,0.098716,1.9,1,1.1,1,1,2,5795,1011
1343,58052,2,7,16,blue-orange,499.941,fieldSmooth,0.098716,1.9,1,1.1,1,1,1,4029,971
1343,58053,2,8,17,blue-orange,499.941,fieldSmooth,0.098716,1.9,1,1.1,1,1,5,7090,959
1343,58054,2,9,18,blue-orange,499.941,fieldSmooth,0.098716,1.9,1,1.1,1,1,6,5894,1015
1344,57821,1,1,1,jet,793.453,fieldSmooth,0.098716,1.9,1,1.1,1,1,4,5716,1299
1344,57822,1,2,2,jet,793.453,fieldSmooth,0.098716,1.9,1,1.1,0,0,6,4081,634
1344,57823,1,3,3,jet,793.453,fieldSmooth,0.098716,1.9,1,1.1,0,0,6,15935,596
1344,57824,1,4,4,jet,793.453,fieldSmooth,0.098716,1.9,1,1.1,0,0,3,11098,586
1344,57825,1,5,5,jet,793.453,fieldSmooth,0.098716,1.9,1,1.1,1,1,6,8022,590
1344,57826,1,6,6,jet,793.453,fieldSmooth,0.098716,1.9,1,1.1,1,1,5,3420,593
1344,57827,1,7,7,jet,793.453,fieldSmooth,0.098716,1.9,1,1.1,0,0,6,10049,586
1344,57828,1,8,8,jet,793.453,fieldSmooth,0.098716,1.9,1,1.1,0,0,6,7202,592
1344,57829,1,9,9,jet,793.453,fieldSmooth,0.098716,1.9,1,1.1,0,0,6,8126,598
1344,57839,3,1,19,blue,148.302,fieldSmooth,0.098716,1.9,1,1.1,1,2,3,3263,603
1344,57840,3,2,20,blue,148.302,fieldSmooth,0.098716,1.9,1,1.1,0,0,1,5405,591
1344,57841,3,3,21,blue,148.302,fieldSmooth,0.098716,1.9,1,1.1,1,2,1,4158,589
1344,57842,3,4,22,blue,148.302,fieldSmooth,0.098716,1.9,1,1.1,1,1,3,8360,587
1344,57843,3,5,23,blue,148.302,fieldSmooth,0.098716,1.9,1,1.1,0,0,3,9201,601
1344,57844,3,6,24,blue,148.302,fieldSmooth,0.098716,1.9,1,1.1,0,0,4,5020,599
1344,57845,3,7,25,blue,148.302,fieldSmooth,0.098716,1.9,1,1.1,1,1,4,3681,594
1344,57846,3,8,26,blue,148.302,fieldSmooth,0.098716,1.9,1,1.1,0,0,3,1754,593
1344,57847,3,9,27,blue,148.302,fieldSmooth,0.098716,1.9,1,1.1,0,0,3,2718,589
1344,57830,2,1,10,viridis,409,fieldSmooth,0.098716,1.9,1,1.1,1,1,6,10149,598
1344,57831,2,2,11,viridis,409,fieldSmooth,0.098716,1.9,1,1.1,0,0,6,8757,599
1344,57832,2,3,12,viridis,409,fieldSmooth,0.098716,1.9,1,1.1,1,2,5,13212,592
1344,57833,2,4,13,viridis,409,fieldSmooth,0.098716,1.9,1,1.1,1,1,5,4451,592
1344,57834,2,5,14,viridis,409,fieldSmooth,0.098716,1.9,1,1.1,0,0,1,3582,589
1344,57835,2,6,15,viridis,409,fieldSmooth,0.098716,1.9,1,1.1,0,0,6,5274,585
1344,57836,2,7,16,viridis,409,fieldSmooth,0.098716,1.9,1,1.1,0,0,6,3773,606
1344,57837,2,8,17,viridis,409,fieldSmooth,0.098716,1.9,1,1.1,0,0,2,2139,591
1344,57838,2,9,18,viridis,409,fieldSmooth,0.098716,1.9,1,1.1,1,2,6,2654,596
1344,57848,4,1,28,blue-orange,499.941,fieldSmooth,0.098716,1.9,1,1.1,1,1,3,2892,590
1344,57849,4,2,29,blue-orange,499.941,fieldSmooth,0.098716,1.9,1,1.1,1,1,3,4919,589
1344,57850,4,3,30,blue-orange,499.941,fieldSmooth,0.098716,1.9,1,1.1,0,0,3,1997,590
1344,57851,4,4,31,blue-orange,499.941,fieldSmooth,0.098716,1.9,1,1.1,0,0,6,3077,592
1344,57852,4,5,32,blue-orange,499.941,fieldSmooth,0.098716,1.9,1,1.1,1,2,2,3494,588
1344,57853,4,6,33,blue-orange,499.941,fieldSmooth,0.098716,1.9,1,1.1,1,2,2,3791,596
1344,57854,4,7,34,blue-orange,499.941,fieldSmooth,0.098716,1.9,1,1.1,0,0,3,3981,590
1344,57855,4,8,35,blue-orange,499.941,fieldSmooth,0.098716,1.9,1,1.1,0,0,2,1666,592
1344,57856,4,9,36,blue-orange,499.941,fieldSmooth,0.098716,1.9,1,1.1,0,0,6,2414,586
1346,57920,4,1,28,jet,793.453,fieldSmooth,0.098716,1.9,1,1.1,1,1,5,6724,328
1346,57921,4,2,29,jet,793.453,fieldSmooth,0.098716,1.9,1,1.1,1,1,6,8986,340
1346,57922,4,3,30,jet,793.453,fieldSmooth,0.098716,1.9,1,1.1,1,1,4,6073,331
1346,57923,4,4,31,jet,793.453,fieldSmooth,0.098716,1.9,1,1.1,1,1,3,5724,334
1346,57924,4,5,32,jet,793.453,fieldSmooth,0.098716,1.9,1,1.1,1,1,5,12012,327
1346,57925,4,6,33,jet,793.453,fieldSmooth,0.098716,1.9,1,1.1,1,1,6,11101,333
1346,57926,4,7,34,jet,793.453,fieldSmooth,0.098716,1.9,1,1.1,1,1,6,17631,329
1346,57927,4,8,35,jet,793.453,fieldSmooth,0.098716,1.9,1,1.1,1,1,3,4256,342
1346,57928,4,9,36,jet,793.453,fieldSmooth,0.098716,1.9,1,1.1,1,1,5,7187,336
1346,57911,3,1,19,blue,148.302,fieldSmooth,0.098716,1.9,1,1.1,0,0,4,13182,348
1346,57912,3,2,20,blue,148.302,fieldSmooth,0.098716,1.9,1,1.1,0,0,5,13697,337
1346,57913,3,3,21,blue,148.302,fieldSmooth,0.098716,1.9,1,1.1,0,0,3,8762,323
1346,57914,3,4,22,blue,148.302,fieldSmooth,0.098716,1.9,1,1.1,0,0,2,7572,338
1346,57915,3,5,23,blue,148.302,fieldSmooth,0.098716,1.9,1,1.1,0,0,1,7384,328
1346,57916,3,6,24,blue,148.302,fieldSmooth,0.098716,1.9,1,1.1,1,1,2,7040,327
1346,57917,3,7,25,blue,148.302,fieldSmooth,0.098716,1.9,1,1.1,0,0,2,9415,331
1346,57918,3,8,26,blue,148.302,fieldSmooth,0.098716,1.9,1,1.1,1,1,6,11414,329
1346,57919,3,9,27,blue,148.302,fieldSmooth,0.098716,1.9,1,1.1,1,1,6,5932,341
1346,57893,1,1,1,viridis,409,fieldSmooth,0.098716,1.9,1,1.1,0,0,6,7386,406
1346,57894,1,2,2,viridis,409,fieldSmooth,0.098716,1.9,1,1.1,1,2,3,7738,365
1346,57895,1,3,3,viridis,409,fieldSmooth,0.098716,1.9,1,1.1,1,2,4,19493,325
1346,57896,1,4,4,viridis,409,fieldSmooth,0.098716,1.9,1,1.1,0,0,1,16341,340
1346,57897,1,5,5,viridis,409,fieldSmooth,0.098716,1.9,1,1.1,1,1,1,13649,336
1346,57898,1,6,6,viridis,409,fieldSmooth,0.098716,1.9,1,1.1,1,1,5,9049,340
1346,57899,1,7,7,viridis,409,fieldSmooth,0.098716,1.9,1,1.1,1,1,3,7005,329
1346,57900,1,8,8,viridis,409,fieldSmooth,0.098716,1.9,1,1.1,1,1,3,7213,334
1346,57901,1,9,9,viridis,409,fieldSmooth,0.098716,1.9,1,1.1,1,1,2,10483,343
1346,57902,2,1,10,blue-orange,499.941,fieldSmooth,0.098716,1.9,1,1.1,1,1,6,9068,330
1346,57903,2,2,11,blue-orange,499.941,fieldSmooth,0.098716,1.9,1,1.1,1,1,1,7669,334
1346,57904,2,3,12,blue-orange,499.941,fieldSmooth,0.098716,1.9,1,1.1,1,1,2,9199,333
1346,57905,2,4,13,blue-orange,499.941,fieldSmooth,0.098716,1.9,1,1.1,1,1,4,7773,330
1346,57906,2,5,14,blue-orange,499.941,fieldSmooth,0.098716,1.9,1,1.1,0,0,4,16474,328
1346,57907,2,6,15,blue-orange,499.941,fieldSmooth,0.098716,1.9,1,1.1,1,1,4,2278,340
1346,57908,2,7,16,blue-orange,499.941,fieldSmooth,0.098716,1.9,1,1.1,1,1,1,2785,335
1346,57909,2,8,17,blue-orange,499.941,fieldSmooth,0.098716,1.9,1,1.1,1,1,6,3178,330
1346,57910,2,9,18,blue-orange,499.941,fieldSmooth,0.098716,1.9,1,1.1,1,1,5,18375,335
1348,58073,1,1,1,jet,793.453,fieldSmooth,0.098716,1.9,1,1.1,0,0,4,4613,1008
1348,58074,1,2,2,jet,793.453,fieldSmooth,0.098716,1.9,1,1.1,1,1,1,2403,610
1348,58075,1,3,3,jet,793.453,fieldSmooth,0.098716,1.9,1,1.1,0,0,3,4269,564
1348,58076,1,4,4,jet,793.453,fieldSmooth,0.098716,1.9,1,1.1,0,0,3,11135,558
1348,58077,1,5,5,jet,793.453,fieldSmooth,0.098716,1.9,1,1.1,1,1,5,7136,579
1348,58078,1,6,6,jet,793.453,fieldSmooth,0.098716,1.9,1,1.1,1,1,6,7256,627
1348,58079,1,7,7,jet,793.453,fieldSmooth,0.098716,1.9,1,1.1,1,2,4,9092,565
1348,58080,1,8,8,jet,793.453,fieldSmooth,0.098716,1.9,1,1.1,1,1,3,1439,585
1348,58081,1,9,9,jet,793.453,fieldSmooth,0.098716,1.9,1,1.1,0,0,6,5249,560
1348,58082,2,1,10,blue,148.302,fieldSmooth,0.098716,1.9,1,1.1,1,1,1,4474,566
1348,58083,2,2,11,blue,148.302,fieldSmooth,0.098716,1.9,1,1.1,1,2,1,7380,563
