subjectid,responseid,block,trial,stimulus,colormap,colorCategorization,vis,centerPerturb,noisePerturb,noisePerturbCount,noiseAmplitude,correct,modelChoice,selectedCanvas,responseTime,generationTime
1551,63329,2,1,13,cubehelix_15,435.233,fieldSmooth,0.098716,1.9,1,1.2,1,1,3,12948,263
1551,63330,2,2,14,cubehelix_15,435.233,fieldSmooth,0.098716,1.9,1,1.2,1,1,4,17760,333
1551,63331,2,3,15,cubehelix_15,435.233,fieldSmooth,0.098716,1.9,1,1.2,1,2,5,8199,372
1551,63332,2,4,16,cubehelix_15,435.233,fieldSmooth,0.098716,1.9,1,1.2,1,1,1,9633,482
1551,63333,2,5,17,cubehelix_15,435.233,fieldSmooth,0.098716,1.9,1,1.2,1,1,4,15961,373
1551,63334,2,6,18,cubehelix_15,435.233,fieldSmooth,0.098716,1.9,1,1.2,1,1,6,14512,333
1551,63335,2,7,19,cubehelix_15,435.233,fieldSmooth,0.098716,1.9,1,1.2,1,1,4,10861,590
1551,63336,2,8,20,cubehelix_15,435.233,fieldSmooth,0.098716,1.9,1,1.2,1,1,6,14727,329
1551,63337,2,9,21,cubehelix_15,435.233,fieldSmooth,0.098716,1.9,1,1.2,1,1,3,5239,339
1551,63338,2,10,22,cubehelix_15,435.233,fieldSmooth,0.098716,1.9,1,1.2,1,1,3,3122,461
1551,63339,2,11,23,cubehelix_15,435.233,fieldSmooth,0.098716,1.9,1,1.2,1,1,3,3627,580
1551,63340,2,12,24,cubehelix_15,435.233,fieldSmooth,0.098716,1.9,1,1.2,1,1,3,19151,311
1551,63317,1,1,1,cubehelix_25,629.557,fieldSmooth,0.098716,1.9,1,1.2,1,1,6,9132,271
1551,63318,1,2,2,cubehelix_25,629.557,fieldSmooth,0.098716,1.9,1,1.2,1,1,6,8959,335
1551,63319,1,3,3,cubehelix_25,629.557,fieldSmooth,0.098716,1.9,1,1.2,1,1,1,6131,319
1551,63320,1,4,4,cubehelix_25,629.557,fieldSmooth,0.098716,1.9,1,1.2,1,1,6,8809,325
1551,63321,1,5,5,cubehelix_25,629.557,fieldSmooth,0.098716,1.9,1,1.2,1,1,5,2168,367
1551,63322,1,6,6,cubehelix_25,629.557,fieldSmooth,0.098716,1.9,1,1.2,1,1,2,25518,318
1551,63323,1,7,7,cubehelix_25,629.557,fieldSmooth,0.098716,1.9,1,1.2,1,1,2,50080,346
1551,63324,1,8,8,cubehelix_25,629.557,fieldSmooth,0.098716,1.9,1,1.2,1,2,6,93916,506
1551,63325,1,9,9,cubehelix_25,629.557,fieldSmooth,0.098716,1.9,1,1.2,1,1,6,15425,332
1551,63326,1,10,10,cubehelix_25,629.557,fieldSmooth,0.098716,1.9,1,1.2,1,1,3,20750,309
1551,63327,1,11,11,cubehelix_25,629.557,fieldSmooth,0.098716,1.9,1,1.2,1,1,3,30518,305
1551,63328,1,12,12,cubehelix_25,629.557,fieldSmooth,0.098716,1.9,1,1.2,1,1,5,19574,315
1551,63341,3,1,25,cubehelix_05,253.356,fieldSmooth,0.098716,1.9,1,1.2,1,2,3,32424,439
1551,63342,3,2,26,cubehelix_05,253.356,fieldSmooth,0.098716,1.9,1,1.2,1,1,5,7618,293
1551,63343,3,3,27,cubehelix_05,253.356,fieldSmooth,0.098716,1.9,1,1.2,1,2,2,20500,386
1551,63344,3,4,28,cubehelix_05,253.356,fieldSmooth,0.098716,1.9,1,1.2,1,2,3,14996,360
1551,63345,3,5,29,cubehelix_05,253.356,fieldSmooth,0.098716,1.9,1,1.2,1,1,1,4884,361
1551,63346,3,6,30,cubehelix_05,253.356,fieldSmooth,0.098716,1.9,1,1.2,1,2,4,10875,349
1551,63347,3,7,31,cubehelix_05,253.356,fieldSmooth,0.098716,1.9,1,1.2,1,1,1,12931,357
1551,63348,3,8,32,cubehelix_05,253.356,fieldSmooth,0.098716,1.9,1,1.2,1,2,2,23680,305
1551,63349,3,9,33,cubehelix_05,253.356,fieldSmooth,0.098716,1.9,1,1.2,0,0,3,10723,264
1551,63350,3,10,34,cubehelix_05,253.356,fieldSmooth,0.098716,1.9,1,1.2,1,2,5,12929,341
1551,63351,3,11,35,cubehelix_05,253.356,fieldSmooth,0.098716,1.9,1,1.2,1,2,2,40733,493
1551,63352,3,12,36,cubehelix_05,253.356,fieldSmooth,0.098716,1.9,1,1.2,1,1,6,11197,308
1555,63461,1,1,1,cubehelix_15,435.233,fieldSmooth,0.098716,1.9,1,1.2,1,2,1,16249,1001
1555,63462,1,2,2,cubehelix_15,435.233,fieldSmooth,0.098716,1.9,1,1.2,1,1,1,27717,517
1555,63463,1,3,3,cubehelix_15,435.233,fieldSmooth,0.098716,1.9,1,1.2,0,0,4,26021,490
1555,63464,1,4,4,cubehelix_15,435.233,fieldSmooth,0.098716,1.9,1,1.2,1,1,3,3346,462
1555,63465,1,5,5,cubehelix_15,435.233,fieldSmooth,0.098716,1.9,1,1.2,0,0,1,20727,475
1555,63466,1,6,6,cubehelix_15,435.233,fieldSmooth,0.098716,1.9,1,1.2,1,1,6,15992,468
1555,63467,1,7,7,cubehelix_15,435.233,fieldSmooth,0.098716,1.9,1,1.2,1,2,4,5140,501
1555,63468,1,8,8,cubehelix_15,435.233,fieldSmooth,0.098716,1.9,1,1.2,1,1,5,8312,464
1555,63469,1,9,9,cubehelix_15,435.233,fieldSmooth,0.098716,1.9,1,1.2,1,2,1,25309,478
1555,63470,1,10,10,cubehelix_15,435.233,fieldSmooth,0.098716,1.9,1,1.2,1,1,3,14426,471
1555,63471,1,11,11,cubehelix_15,435.233,fieldSmooth,0.098716,1.9,1,1.2,1,2,4,22883,469
1555,63472,1,12,12,cubehelix_15,435.233,fieldSmooth,0.098716,1.9,1,1.2,0,0,4,26621,474
1555,63473,2,1,13,cubehelix_25,629.557,fieldSmooth,0.098716,1.9,1,1.2,1,1,2,24972,481
1555,63474,2,2,14,cubehelix_25,629.557,fieldSmooth,0.098716,1.9,1,1.2,1,1,6,8022,599
1555,63475,2,3,15,cubehelix_25,629.557,fieldSmooth,0.098716,1.9,1,1.2,1,1,1,9680,494
1555,63476,2,4,16,cubehelix_25,629.557,fieldSmooth,0.098716,1.9,1,1.2,1,1,1,13870,465
1555,63477,2,5,17,cubehelix_25,629.557,fieldSmooth,0.098716,1.9,1,1.2,1,1,4,90501,488
1555,63478,2,6,18,cubehelix_25,629.557,fieldSmooth,0.098716,1.9,1,1.2,1,1,3,39180,511
1555,63479,2,7,19,cubehelix_25,629.557,fieldSmooth,0.098716,1.9,1,1.2,1,1,4,13326,567
1555,63480,2,8,20,cubehelix_25,629.557,fieldSmooth,0.098716,1.9,1,1.2,1,1,1,40559,474
1555,63481,2,9,21,cubehelix_25,629.557,fieldSmooth,0.098716,1.9,1,1.2,1,1,3,17142,459
1555,63482,2,10,22,cubehelix_25,629.557,fieldSmooth,0.098716,1.9,1,1.2,1,1,5,6398,473
1555,63483,2,11,23,cubehelix_25,629.557,fieldSmooth,0.098716,1.9,1,1.2,1,1,1,21256,463
1555,63484,2,12,24,cubehelix_25,629.557,fieldSmooth,0.098716,1.9,1,1.2,1,1,6,35783,473
1555,63485,3,1,25,cubehelix_05,253.356,fieldSmooth,0.098716,1.9,1,1.2,1,1,1,11762,464
1555,63486,3,2,26,cubehelix_05,253.356,fieldSmooth,0.098716,1.9,1,1.2,1,1,6,15078,461
1555,63487,3,3,27,cubehelix_05,253.356,fieldSmooth,0.098716,1.9,1,1.2,1,1,5,30418,478
1555,63488,3,4,28,cubehelix_05,253.356,fieldSmooth,0.098716,1.9,1,1.2,1,1,6,12270,463
1555,63489,3,5,29,cubehelix_05,253.356,fieldSmooth,0.098716,1.9,1,1.2,1,1,2,33937,471
1555,63490,3,6,30,cubehelix_05,253.356,fieldSmooth,0.098716,1.9,1,1.2,0,0,4,27171,473
1555,63491,3,7,31,cubehelix_05,253.356,fieldSmooth,0.098716,1.9,1,1.2,1,2,6,28059,525
1555,63492,3,8,32,cubehelix_05,253.356,fieldSmooth,0.098716,1.9,1,1.2,1,1,5,24920,489
1555,63493,3,9,33,cubehelix_05,253.356,fieldSmooth,0.098716,1.9,1,1.2,1,2,5,29816,469
1555,63494,3,10,34,cubehelix_05,253.356,fieldSmooth,0.098716,1.9,1,1.2,1,2,6,21963,466
1555,63495,3,11,35,cubehelix_05,253.356,fieldSmooth,0.098716,1.9,1,1.2,1,1,2,5845,467
1555,63496,3,12,36,cubehelix_05,253.356,fieldSmooth,0.098716,1.9,1,1.2,1,1,6,28091,469
1556,63365,2,1,13,cubehelix_15,435.233,fieldSmooth,0.098716,1.9,1,1.2,0,0,5,10849,601
1556,63366,2,2,14,cubehelix_15,435.233,fieldSmooth,0.098716,1.9,1,1.2,1,1,6,2915,592
1556,63367,2,3,15,cubehelix_15,435.233,fieldSmooth,0.098716,1.9,1,1.2,1,1,3,4551,588
1556,63368,2,4,16,cubehelix_15,435.233,fieldSmooth,0.098716,1.9,1,1.2,1,1,5,8454,598
1556,63369,2,5,17,cubehelix_15,435.233,fieldSmooth,0.098716,1.9,1,1.2,1,1,5,9637,598
1556,63370,2,6,18,cubehelix_15,435.233,fieldSmooth,0.098716,1.9,1,1.2,1,1,1,7053,598
1556,63371,2,7,19,cubehelix_15,435.233,fieldSmooth,0.098716,1.9,1,1.2,1,1,4,5224,601
1556,63372,2,8,20,cubehelix_15,435.233,fieldSmooth,0.098716,1.9,1,1.2,1,1,4,6277,600
1556,63373,2,9,21,cubehelix_15,435.233,fieldSmooth,0.098716,1.9,1,1.2,1,1,3,7277,597
1556,63374,2,10,22,cubehelix_15,435.233,fieldSmooth,0.098716,1.9,1,1.2,0,0,2,6947,592
1556,63375,2,11,23,cubehelix_15,435.233,fieldSmooth,0.098716,1.9,1,1.2,1,1,4,4258,594
1556,63376,2,12,24,cubehelix_15,435.233,fieldSmooth,0.098716,1.9,1,1.2,0,0,6,24070,596
1556,63353,1,1,1,cubehelix_25,629.557,fieldSmooth,0.098716,1.9,1,1.2,0,0,2,14721,1365
1556,63354,1,2,2,cubehelix_25,629.557,fieldSmooth,0.098716,1.9,1,1.2,0,0,5,8756,645
1556,63355,1,3,3,cubehelix_25,629.557,fieldSmooth,0.098716,1.9,1,1.2,0,0,4,6050,609
1556,63356,1,4,4,cubehelix_25,629.557,fieldSmooth,0.098716,1.9,1,1.2,1,1,1,4591,607
1556,63357,1,5,5,cubehelix_25,629.557,fieldSmooth,0.098716,1.9,1,1.2,1,2,6,8042,597
1556,63358,1,6,6,cubehelix_25,629.557,fieldSmooth,0.098716,1.9,1,1.2,1,1,6,9799,586
1556,63359,1,7,7,cubehelix_25,629.557,fieldSmooth,0.098716,1.9,1,1.2,0,0,5,7753,594
1556,63360,1,8,8,cubehelix_25,629.557,fieldSmooth,0.098716,1.9,1,1.2,1,1,2,4183,589
1556,63361,1,9,9,cubehelix_25,629.557,fieldSmooth,0.098716,1.9,1,1.2,1,1,5,3975,586
1556,63362,1,10,10,cubehelix_25,629.557,fieldSmooth,0.098716,1.9,1,1.2,1,2,6,16300,584
1556,63363,1,11,11,cubehelix_25,629.557,fieldSmooth,0.098716,1.9,1,1.2,1,1,4,9945,595
1556,63364,1,12,12,cubehelix_25,629.557,fieldSmooth,0.098716,1.9,1,1.2,1,1,4,5250,593
1556,63377,3,1,25,cubehelix_05,253.356,fieldSmooth,0.098716,1.9,1,1.2,1,1,5,4520,611
1556,63378,3,2,26,cubehelix_05,253.356,fieldSmooth,0.098716,1.9,1,1.2,1,1,2,6933,598
1556,63379,3,3,27,cubehelix_05,253.356,fieldSmooth,0.098716,1.9,1,1.2,1,2,3,11767,604
1556,63380,3,4,28,cubehelix_05,253.356,fieldSmooth,0.098716,1.9,1,1.2,0,0,6,7970,602
1556,63381,3,5,29,cubehelix_05,253.356,fieldSmooth,0.098716,1.9,1,1.2,1,1,6,3439,604
1556,63382,3,6,30,cubehelix_05,253.356,fieldSmooth,0.098716,1.9,1,1.2,1,2,1,3851,600
1556,63383,3,7,31,cubehelix_05,253.356,fieldSmooth,0.098716,1.9,1,1.2,1,1,3,2680,596
1556,63384,3,8,32,cubehelix_05,253.356,fieldSmooth,0.098716,1.9,1,1.2,0,0,3,6541,591
1556,63385,3,9,33,cubehelix_05,253.356,fieldSmooth,0.098716,1.9,1,1.2,1,1,5,4864,596
1556,63386,3,10,34,cubehelix_05,253.356,fieldSmooth,0.098716,1.9,1,1.2,1,1,2,9210,597
1556,63387,3,11,35,cubehelix_05,253.356,fieldSmooth,0.098716,1.9,1,1.2,0,0,4,4553,607
1556,63388,3,12,36,cubehelix_05,253.356,fieldSmooth,0.098716,1.9,1,1.2,0,0,4,6805,606
1557,63725,2,1,13,cubehelix_15,435.233,fieldSmooth,0.098716,1.9,1,1.2,1,1,6,14398,491
1557,63726,2,2,14,cubehelix_15,435.233,fieldSmooth,0.098716,1.9,1,1.2,1,1,6,124770,566
1557,63727,2,3,15,cubehelix_15,435.233,fieldSmooth,0.098716,1.9,1,1.2,1,1,6,27196,492
1557,63728,2,4,16,cubehelix_15,435.233,fieldSmooth,0.098716,1.9,1,1.2,1,1,1,42264,474
1557,63729,2,5,17,cubehelix_15,435.233,fieldSmooth,0.098716,1.9,1,1.2,1,2,5,27278,489
1557,63730,2,6,18,cubehelix_15,435.233,fieldSmooth,0.098716,1.9,1,1.2,1,1,2,5834,523
1557,63731,2,7,19,cubehelix_15,435.233,fieldSmooth,0.098716,1.9,1,1.2,1,1,5,18309,478
1557,63732,2,8,20,cubehelix_15,435.233,fieldSmooth,0.098716,1.9,1,1.2,1,1,6,12447,520
1557,63733,2,9,21,cubehelix_15,435.233,fieldSmooth,0.098716,1.9,1,1.2,1,1,2,5986,472
1557,63734,2,10,22,cubehelix_15,435.233,fieldSmooth,0.098716,1.9,1,1.2,0,0,6,30946,490
1557,63735,2,11,23,cubehelix_15,435.233,fieldSmooth,0.098716,1.9,1,1.2,0,0,3,22054,522
1557,63736,2,12,24,cubehelix_15,435.233,fieldSmooth,0.098716,1.9,1,1.2,1,1,2,31997,500
1557,63737,3,1,25,cubehelix_25,629.557,fieldSmooth,0.098716,1.9,1,1.2,0,0,5,18548,502
1557,63738,3,2,26,cubehelix_25,629.557,fieldSmooth,0.098716,1.9,1,1.2,1,1,6,11827,470
1557,63739,3,3,27,cubehelix_25,629.557,fieldSmooth,0.098716,1.9,1,1.2,0,0,1,26164,542
1557,63740,3,4,28,cubehelix_25,629.557,fieldSmooth,0.098716,1.9,1,1.2,1,2,1,10266,488
1557,63741,3,5,29,cubehelix_25,629.557,fieldSmooth,0.098716,1.9,1,1.2,1,1,4,5930,516
1557,63742,3,6,30,cubehelix_25,629.557,fieldSmooth,0.098716,1.9,1,1.2,1,1,5,11044,530
1557,63743,3,7,31,cubehelix_25,629.557,fieldSmooth,0.098716,1.9,1,1.2,0,0,5,10188,499
1557,63744,3,8,32,cubehelix_25,629.557,fieldSmooth,0.098716,1.9,1,1.2,1,1,4,9739,498
1557,63745,3,9,33,cubehelix_25,629.557,fieldSmooth,0.098716,1.9,1,1.2,1,1,4,5631,477
1557,63746,3,10,34,cubehelix_25,629.557,fieldSmooth,0.098716,1.9,1,1.2,1,1,6,6950,496
1557,63747,3,11,35,cubehelix_25,629.557,fieldSmooth,0.098716,1.9,1,1.2,0,0,3,14123,465
1557,63748,3,12,36,cubehelix_25,629.557,fieldSmooth,0.098716,1.9,1,1.2,1,1,2,20712,502
1557,63713,1,1,1,cubehelix_05,253.356,fieldSmooth,0.098716,1.9,1,1.2,1,2,4,31237,1101
1557,63714,1,2,2,cubehelix_05,253.356,fieldSmooth,0.098716,1.9,1,1.2,1,1,4,19603,590
1557,63715,1,3,3,cubehelix_05,253.356,fieldSmooth,0.098716,1.9,1,1.2,1,2,5,85615,492
1557,63716,1,4,4,cubehelix_05,253.356,fieldSmooth,0.098716,1.9,1,1.2,1,1,5,11404,527
1557,63717,1,5,5,cubehelix_05,253.356,fieldSmooth,0.098716,1.9,1,1.2,1,2,4,4912,482
1557,63718,1,6,6,cubehelix_05,253.356,fieldSmooth,0.098716,1.9,1,1.2,0,0,3,33794,511
1557,63719,1,7,7,cubehelix_05,253.356,fieldSmooth,0.098716,1.9,1,1.2,1,2,3,32799,498
1557,63720,1,8,8,cubehelix_05,253.356,fieldSmooth,0.098716,1.9,1,1.2,0,0,4,33518,468
1557,63721,1,9,9,cubehelix_05,253.356,fieldSmooth,0.098716,1.9,1,1.2,1,2,6,11889,489
1557,63722,1,10,10,cubehelix_05,253.356,fieldSmooth,0.098716,1.9,1,1.2,0,0,5,49829,496
1557,63723,1,11,11,cubehelix_05,253.356,fieldSmooth,0.098716,1.9,1,1.2,1,1,1,18205,493
1557,63724,1,12,12,cubehelix_05,253.356,fieldSmooth,0.098716,1.9,1,1.2,1,2,1,5800,537
1558,63113,2,1,13,cubehelix_15,435.233,fieldSmooth,0.098716,1.9,1,1.2,1,1,5,9880,372
1558,63114,2,2,14,cubehelix_15,435.233,fieldSmooth,0.098716,1.9,1,1.2,1,1,3,6539,347
1558,63115,2,3,15,cubehelix_15,435.233,fieldSmooth,0.098716,1.9,1,1.2,1,1,3,3359,356
1558,63116,2,4,16,cubehelix_15,435.233,fieldSmooth,0.098716,1.9,1,1.2,1,2,1,10091,354
1558,63117,2,5,17,cubehelix_15,435.233,fieldSmooth,0.098716,1.9,1,1.2,1,1,3,5988,373
1558,63118,2,6,18,cubehelix_15,435.233,fieldSmooth,0.098716,1.9,1,1.2,1,2,6,3923,395
1558,63119,2,7,19,cubehelix_15,435.233,fieldSmooth,0.098716,1.9,1,1.2,0,0,1,2432,381
1558,63120,2,8,20,cubehelix_15,435.233,fieldSmooth,0.098716,1.9,1,1.2,1,1,6,4396,355
1558,63121,2,9,21,cubehelix_15,435.233,fieldSmooth,0.098716,1.9,1,1.2,1,1,1,7455,357
1558,63122,2,10,22,cubehelix_15,435.233,fieldSmooth,0.098716,1.9,1,1.2,0,0,4,6568,381
1558,63123,2,11,23,cubehelix_15,435.233,fieldSmooth,0.098716,1.9,1,1.2,1,1,6,4327,348
1558,63124,2,12,24,cubehelix_15,435.233,fieldSmooth,0.098716,1.9,1,1.2,1,2,1,4314,402
1558,63125,3,1,25,cubehelix_25,629.557,fieldSmooth,0.098716,1.9,1,1.2,1,1,1,3322,355
1558,63126,3,2,26,cubehelix_25,629.557,fieldSmooth,0.098716,1.9,1,1.2,1,1,3,3609,382
1558,63127,3,3,27,cubehelix_25,629.557,fieldSmooth,0.098716,1.9,1,1.2,0,0,3,3811,367
1558,63128,3,4,28,cubehelix_25,629.557,fieldSmooth,0.098716,1.9,1,1.2,1,1,2,10687,375
1558,63129,3,5,29,cubehelix_25,629.557,fieldSmooth,0.098716,1.9,1,1.2,1,1,4,2428,394
1558,63130,3,6,30,cubehelix_25,629.557,fieldSmooth,0.098716,1.9,1,1.2,1,1,1,4974,397
1558,63131,3,7,31,cubehelix_25,629.557,fieldSmooth,0.098716,1.9,1,1.2,1,1,3,4638,368
1558,63132,3,8,32,cubehelix_25,629.557,fieldSmooth,0.098716,1.9,1,1.2,1,1,6,6295,390
1558,63133,3,9,33,cubehelix_25,629.557,fieldSmooth,0.098716,1.9,1,1.2,1,1,5,3608,373
1558,63134,3,10,34,cubehelix_25,629.557,fieldSmooth,0.098716,1.9,1,1.2,1,1,1,1940,370
1558,63135,3,11,35,cubehelix_25,629.557,fieldSmooth,0.098716,1.9,1,1.2,0,0,5,1866,356
1558,63136,3,12,36,cubehelix_25,629.557,fieldSmooth,0.098716,1.9,1,1.2,1,1,4,4196,342
1558,63101,1,1,1,cubehelix_05,253.356,fieldSmooth,0.098716,1.9,1,1.2,1,1,3,4314,1124
1558,63102,1,2,2,cubehelix_05,253.356,fieldSmooth,0.098716,1.9,1,1.2,1,1,5,3607,384
1558,63103,1,3,3,cubehelix_05,253.356,fieldSmooth,0.098716,1.9,1,1.2,1,1,1,2106,362
1558,63104,1,4,4,cubehelix_05,253.356,fieldSmooth,0.098716,1.9,1,1.2,0,0,5,3864,361
1558,63105,1,5,5,cubehelix_05,253.356,fieldSmooth,0.098716,1.9,1,1.2,0,0,4,3664,356
1558,63106,1,6,6,cubehelix_05,253.356,fieldSmooth,0.098716,1.9,1,1.2,1,1,3,8009,350
1558,63107,1,7,7,cubehelix_05,253.356,fieldSmooth,0.098716,1.9,1,1.2,0,0,4,3671,369
1558,63108,1,8,8,cubehelix_05,253.356,fieldSmooth,0.098716,1.9,1,1.2,1,1,4,2687,367
1558,63109,1,9,9,cubehelix_05,253.356,fieldSmooth,0.098716,1.9,1,1.2,1,1,4,1995,379
1558,63110,1,10,10,cubehelix_05,253.356,fieldSmooth,0.098716,1.9,1,1.2,0,0,4,2636,346
1558,63111,1,11,11,cubehelix_05,253.356,fieldSmooth,0.098716,1.9,1,1.2,1,1,3,6400,355
1558,63112,1,12,12,cubehelix_05,253.356,fieldSmooth,0.098716,1.9,1,1.2,0,0,5,6429,371
1559,63977,2,1,13,cubehelix_15,435.233,fieldSmooth,0.098716,1.9,1,1.2,1,2,1,3528,988
1559,63978,2,2,14,cubehelix_15,435.233,fieldSmooth,0.098716,1.9,1,1.2,0,0,4,4806,974
1559,63979,2,3,15,cubehelix_15,435.233,fieldSmooth,0.098716,1.9,1,1.2,0,0,1,2980,984
1559,63980,2,4,16,cubehelix_15,435.233,fieldSmooth,0.098716,1.9,1,1.2,1,1,4,6813,1058
1559,63981,2,5,17,cubehelix_15,435.233,fieldSmooth,0.098716,1.9,1,1.2,0,0,4,3883,950
1559,63982,2,6,18,cubehelix_15,435.233,fieldSmooth,0.098716,1.9,1,1.2,0,0,4,10129,1009
1559,63983,2,7,19,cubehelix_15,435.233,fieldSmooth,0.098716,1.9,1,1.2,1,1,3,6378,1005
1559,63984,2,8,20,cubehelix_15,435.233,fieldSmooth,0.098716,1.9,1,1.2,1,2,6,8343,1063
1559,63985,2,9,21,cubehelix_15,435.233,fieldSmooth,0.098716,1.9,1,1.2,0,0,1,7619,969
1559,63986,2,10,22,cubehelix_15,435.233,fieldSmooth,0.098716,1.9,1,1.2,0,0,1,8647,1148
1559,63987,2,11,23,cubehelix_15,435.233,fieldSmooth,0.098716,1.9,1,1.2,0,0,6,7327,979
1559,63988,2,12,24,cubehelix_15,435.233,fieldSmooth,0.098716,1.9,1,1.2,1,1,6,4736,1086
1559,63989,3,1,25,cubehelix_25,629.557,fieldSmooth,0.098716,1.9,1,1.2,0,0,1,2175,1014
1559,63990,3,2,26,cubehelix_25,629.557,fieldSmooth,0.098716,1.9,1,1.2,1,1,1,4256,959
1559,63991,3,3,27,cubehelix_25,629.557,fieldSmooth,0.098716,1.9,1,1.2,1,1,2,7195,941
1559,63992,3,4,28,cubehelix_25,629.557,fieldSmooth,0.098716,1.9,1,1.2,1,1,6,3838,972
1559,63993,3,5,29,cubehelix_25,629.557,fieldSmooth,0.098716,1.9,1,1.2,1,1,4,6392,934
1559,63994,3,6,30,cubehelix_25,629.557,fieldSmooth,0.098716,1.9,1,1.2,0,0,4,3280,995
1559,63995,3,7,31,cubehelix_25,629.557,fieldSmooth,0.098716,1.9,1,1.2,0,0,4,7093,981
1559,63996,3,8,32,cubehelix_25,629.557,fieldSmooth,0.098716,1.9,1,1.2,1,1,1,2384,994
1559,63997,3,9,33,cubehelix_25,629.557,fieldSmooth,0.098716,1.9,1,1.2,1,1,6,2166,934
1559,63998,3,10,34,cubehelix_25,629.557,fieldSmooth,0.098716,1.9,1,1.2,0,0,5,2279,1024
1559,63999,3,11,35,cubehelix_25,629.557,fieldSmooth,0.098716,1.9,1,1.2,0,0,5,3442,1043
1559,64000,3,12,36,cubehelix_25,629.557,fieldSmooth,0.098716,1.9,1,1.2,0,0,1,8343,973
1559,63965,1,1,1,cubehelix_05,253.356,fieldSmooth,0.098716,1.9,1,1.2,0,0,6,31498,1070
1559,63966,1,2,2,cubehelix_05,253.356,fieldSmooth,0.098716,1.9,1,1.2,1,1,3,92457,1011
1559,63967,1,3,3,cubehelix_05,253.356,fieldSmooth,0.098716,1.9,1,1.2,1,1,3,7138,976
1559,63968,1,4,4,cubehelix_05,253.356,fieldSmooth,0.098716,1.9,1,1.2,0,0,3,18180,936
1559,63969,1,5,5,cubehelix_05,253.356,fieldSmooth,0.098716,1.9,1,1.2,0,0,1,1313085,992
1559,63970,1,6,6,cubehelix_05,253.356,fieldSmooth,0.098716,1.9,1,1.2,1,1,1,3101,1032
1559,63971,1,7,7,cubehelix_05,253.356,fieldSmooth,0.098716,1.9,1,1.2,1,1,6,2538,960
1559,63972,1,8,8,cubehelix_05,253.356,fieldSmooth,0.098716,1.9,1,1.2,1,1,3,5906,1008
1559,63973,1,9,9,cubehelix_05,253.356,fieldSmooth,0.098716,1.9,1,1.2,1,1,6,10085,1005
1559,63974,1,10,10,cubehelix_05,253.356,fieldSmooth,0.098716,1.9,1,1.2,1,1,3,6070,1028
1559,63975,1,11,11,cubehelix_05,253.356,fieldSmooth,0.098716,1.9,1,1.2,1,1,4,6753,968
1559,63976,1,12,12,cubehelix_05,253.356,fieldSmooth,0.098716,1.9,1,1.2,1,1,6,4611,971
1560,63185,2,1,13,cubehelix_15,435.233,fieldSmooth,0.098716,1.9,1,1.2,1,2,3,12448,783
1560,63186,2,2,14,cubehelix_15,435.233,fieldSmooth,0.098716,1.9,1,1.2,1,1,3,3814,756
1560,63187,2,3,15,cubehelix_15,435.233,fieldSmooth,0.098716,1.9,1,1.2,1,1,5,8224,796
1560,63188,2,4,16,cubehelix_15,435.233,fieldSmooth,0.098716,1.9,1,1.2,1,2,5,4566,723
1560,63189,2,5,17,cubehelix_15,435.233,fieldSmooth,0.098716,1.9,1,1.2,1,2,2,11061,883
1560,63190,2,6,18,cubehelix_15,435.233,fieldSmooth,0.098716,1.9,1,1.2,0,0,1,7431,813
1560,63191,2,7,19,cubehelix_15,435.233,fieldSmooth,0.098716,1.9,1,1.2,1,2,4,4264,880
1560,63192,2,8,20,cubehelix_15,435.233,fieldSmooth,0.098716,1.9,1,1.2,0,0,1,5537,868
1560,63193,2,9,21,cubehelix_15,435.233,fieldSmooth,0.098716,1.9,1,1.2,1,2,5,4691,807
1560,63194,2,10,22,cubehelix_15,435.233,fieldSmooth,0.098716,1.9,1,1.2,1,2,3,12789,806
1560,63195,2,11,23,cubehelix_15,435.233,fieldSmooth,0.098716,1.9,1,1.2,1,2,6,7492,733
1560,63196,2,12,24,cubehelix_15,435.233,fieldSmooth,0.098716,1.9,1,1.2,1,1,2,89978,855
1560,63197,3,1,25,cubehelix_25,629.557,fieldSmooth,0.098716,1.9,1,1.2,1,1,2,21362,752
1560,63198,3,2,26,cubehelix_25,629.557,fieldSmooth,0.098716,1.9,1,1.2,0,0,4,7326,816
1560,63199,3,3,27,cubehelix_25,629.557,fieldSmooth,0.098716,1.9,1,1.2,1,1,4,8380,758
1560,63200,3,4,28,cubehelix_25,629.557,fieldSmooth,0.098716,1.9,1,1.2,1,1,2,3463,763
1560,63201,3,5,29,cubehelix_25,629.557,fieldSmooth,0.098716,1.9,1,1.2,1,1,5,6745,735
1560,63202,3,6,30,cubehelix_25,629.557,fieldSmooth,0.098716,1.9,1,1.2,1,1,4,5281,826
1560,63203,3,7,31,cubehelix_25,629.557,fieldSmooth,0.098716,1.9,1,1.2,0,0,2,7199,866
1560,63204,3,8,32,cubehelix_25,629.557,fieldSmooth,0.098716,1.9,1,1.2,1,1,5,103302,882
1560,63205,3,9,33,cubehelix_25,629.557,fieldSmooth,0.098716,1.9,1,1.2,1,2,6,6354,761
1560,63206,3,10,34,cubehelix_25,629.557,fieldSmooth,0.098716,1.9,1,1.2,1,2,2,4570,767
1560,63207,3,11,35,cubehelix_25,629.557,fieldSmooth,0.098716,1.9,1,1.2,1,2,1,3570,769
1560,63208,3,12,36,cubehelix_25,629.557,fieldSmooth,0.098716,1.9,1,1.2,1,1,2,3962,791
1560,63173,1,1,1,cubehelix_05,253.356,fieldSmooth,0.098716,1.9,1,1.2,1,2,3,5654,772
1560,63174,1,2,2,cubehelix_05,253.356,fieldSmooth,0.098716,1.9,1,1.2,1,2,5,3236,783
1560,63175,1,3,3,cubehelix_05,253.356,fieldSmooth,0.098716,1.9,1,1.2,0,0,2,6990,742
1560,63176,1,4,4,cubehelix_05,253.356,fieldSmooth,0.098716,1.9,1,1.2,1,1,6,3296,776
1560,63177,1,5,5,cubehelix_05,253.356,fieldSmooth,0.098716,1.9,1,1.2,0,0,1,7701,805
1560,63178,1,6,6,cubehelix_05,253.356,fieldSmooth,0.098716,1.9,1,1.2,1,2,5,5290,760
1560,63179,1,7,7,cubehelix_05,253.356,fieldSmooth,0.098716,1.9,1,1.2,0,0,1,5228,743
1560,63180,1,8,8,cubehelix_05,253.356,fieldSmooth,0.098716,1.9,1,1.2,1,2,5,6435,792
1560,63181,1,9,9,cubehelix_05,253.356,fieldSmooth,0.098716,1.9,1,1.2,1,2,6,6490,739
1560,63182,1,10,10,cubehelix_05,253.356,fieldSmooth,0.098716,1.9,1,1.2,1,2,3,6057,751
1560,63183,1,11,11,cubehelix_05,253.356,fieldSmooth,0.098716,1.9,1,1.2,0,0,5,2946,832
1560,63184,1,12,12,cubehelix_05,253.356,fieldSmooth,0.098716,1.9,1,1.2,1,2,5,3948,752
1561,63149,2,1,13,cubehelix_15,435.233,fieldSmooth,0.098716,1.9,1,1.2,1,2,3,7936,754
1561,63150,2,2,14,cubehelix_15,435.233,fieldSmooth,0.098716,1.9,1,1.2,1,2,1,17478,747
1561,63151,2,3,15,cubehelix_15,435.233,fieldSmooth,0.098716,1.9,1,1.2,1,2,6,5132,734
1561,63152,2,4,16,cubehelix_15,435.233,fieldSmooth,0.098716,1.9,1,1.2,1,2,2,7735,912
1561,63153,2,5,17,cubehelix_15,435.233,fieldSmooth,0.098716,1.9,1,1.2,1,1,3,7046,754
1561,63154,2,6,18,cubehelix_15,435.233,fieldSmooth,0.098716,1.9,1,1.2,1,2,5,15430,725
1561,63155,2,7,19,cubehelix_15,435.233,fieldSmooth,0.098716,1.9,1,1.2,1,2,5,4266,968
1561,63156,2,8,20,cubehelix_15,435.233,fieldSmooth,0.098716,1.9,1,1.2,1,1,6,6925,909
1561,63157,2,9,21,cubehelix_15,435.233,fieldSmooth,0.098716,1.9,1,1.2,1,2,1,5188,822
1561,63158,2,10,22,cubehelix_15,435.233,fieldSmooth,0.098716,1.9,1,1.2,1,2,1,2313,739
1561,63159,2,11,23,cubehelix_15,435.233,fieldSmooth,0.098716,1.9,1,1.2,1,2,4,9637,838
1561,63160,2,12,24,cubehelix_15,435.233,fieldSmooth,0.098716,1.9,1,1.2,1,2,4,9666,752
1561,63137,1,1,1,cubehelix_25,629.557,fieldSmooth,0.098716,1.9,1,1.2,1,2,3,14204,1534
1561,63138,1,2,2,cubehelix_25,629.557,fieldSmooth,0.098716,1.9,1,1.2,1,1,6,5432,820
1561,63139,1,3,3,cubehelix_25,629.557,fieldSmooth,0.098716,1.9,1,1.2,1,1,4,18688,871
1561,63140,1,4,4,cubehelix_25,629.557,fieldSmooth,0.098716,1.9,1,1.2,1,2,5,23091,958
1561,63141,1,5,5,cubehelix_25,629.557,fieldSmooth,0.098716,1.9,1,1.2,1,1,4,2003,751
1561,63142,1,6,6,cubehelix_25,629.557,fieldSmooth,0.098716,1.9,1,1.2,1,2,6,5239,723
1561,63143,1,7,7,cubehelix_25,629.557,fieldSmooth,0.098716,1.9,1,1.2,1,1,2,7913,865
1561,63144,1,8,8,cubehelix_25,629.557,fieldSmooth,0.098716,1.9,1,1.2,1,2,4,21444,869
1561,63145,1,9,9,cubehelix_25,629.557,fieldSmooth,0.098716,1.9,1,1.2,1,2,4,13758,785
1561,63146,1,10,10,cubehelix_25,629.557,fieldSmooth,0.098716,1.9,1,1.2,1,1,2,3996,926
1561,63147,1,11,11,cubehelix_25,629.557,fieldSmooth,0.098716,1.9,1,1.2,1,1,4,8751,762
1561,63148,1,12,12,cubehelix_25,629.557,fieldSmooth,0.098716,1.9,1,1.2,1,1,1,8332,727
1561,63161,3,1,25,cubehelix_05,253.356,fieldSmooth,0.098716,1.9,1,1.2,1,2,3,5264,761
1561,63162,3,2,26,cubehelix_05,253.356,fieldSmooth,0.098716,1.9,1,1.2,1,2,2,23478,837
1561,63163,3,3,27,cubehelix_05,253.356,fieldSmooth,0.098716,1.9,1,1.2,1,1,5,11466,744
1561,63164,3,4,28,cubehelix_05,253.356,fieldSmooth,0.098716,1.9,1,1.2,1,2,4,17899,811
1561,63165,3,5,29,cubehelix_05,253.356,fieldSmooth,0.098716,1.9,1,1.2,0,0,3,20064,957
1561,63166,3,6,30,cubehelix_05,253.356,fieldSmooth,0.098716,1.9,1,1.2,1,2,4,15129,744
1561,63167,3,7,31,cubehelix_05,253.356,fieldSmooth,0.098716,1.9,1,1.2,1,2,1,11065,776
1561,63168,3,8,32,cubehelix_05,253.356,fieldSmooth,0.098716,1.9,1,1.2,1,2,5,12836,863
1561,63169,3,9,33,cubehelix_05,253.356,fieldSmooth,0.098716,1.9,1,1.2,1,2,2,20507,771
1561,63170,3,10,34,cubehelix_05,253.356,fieldSmooth,0.098716,1.9,1,1.2,1,2,6,11838,784
1561,63171,3,11,35,cubehelix_05,253.356,fieldSmooth,0.098716,1.9,1,1.2,1,2,3,7176,745
1561,63172,3,12,36,cubehelix_05,253.356,fieldSmooth,0.098716,1.9,1,1.2,1,2,1,6605,1020
1562,63305,3,1,25,cubehelix_15,435.233,fieldSmooth,0.098716,1.9,1,1.2,1,2,1,5712,513
1562,63306,3,2,26,cubehelix_15,435.233,fieldSmooth,0.098716,1.9,1,1.2,0,0,6,3096,517
1562,63307,3,3,27,cubehelix_15,435.233,fieldSmooth,0.098716,1.9,1,1.2,0,0,1,5518,511
1562,63308,3,4,28,cubehelix_15,435.233,fieldSmooth,0.098716,1.9,1,1.2,1,1,4,5312,515
1562,63309,3,5,29,cubehelix_15,435.233,fieldSmooth,0.098716,1.9,1,1.2,0,0,4,3321,513
1562,63310,3,6,30,cubehelix_15,435.233,fieldSmooth,0.098716,1.9,1,1.2,1,1,6,10331,516
1562,63311,3,7,31,cubehelix_15,435.233,fieldSmooth,0.098716,1.9,1,1.2,1,1,4,7252,524
1562,63312,3,8,32,cubehelix_15,435.233,fieldSmooth,0.098716,1.9,1,1.2,0,0,3,8671,507
1562,63313,3,9,33,cubehelix_15,435.233,fieldSmooth,0.098716,1.9,1,1.2,0,0,6,10019,518
1562,63314,3,10,34,cubehelix_15,435.233,fieldSmooth,0.098716,1.9,1,1.2,1,1,6,6173,517
1562,63315,3,11,35,cubehelix_15,435.233,fieldSmooth,0.098716,1.9,1,1.2,0,0,3,10618,518
1562,63316,3,12,36,cubehelix_15,435.233,fieldSmooth,0.098716,1.9,1,1.2,0,0,5,2350,517
1562,63293,2,1,13,cubehelix_25,629.557,fieldSmooth,0.098716,1.9,1,1.2,0,0,1,17428,532
1562,63294,2,2,14,cubehelix_25,629.557,fieldSmooth,0.098716,1.9,1,1.2,1,1,6,12535,521
1562,63295,2,3,15,cubehelix_25,629.557,fieldSmooth,0.098716,1.9,1,1.2,0,0,3,5363,519
1562,63296,2,4,16,cubehelix_25,629.557,fieldSmooth,0.098716,1.9,1,1.2,1,1,3,14638,518
1562,63297,2,5,17,cubehelix_25,629.557,fieldSmooth,0.098716,1.9,1,1.2,0,0,2,1677,513
1562,63298,2,6,18,cubehelix_25,629.557,fieldSmooth,0.098716,1.9,1,1.2,1,1,4,4573,520
1562,63299,2,7,19,cubehelix_25,629.557,fieldSmooth,0.098716,1.9,1,1.2,0,0,4,3038,510
1562,63300,2,8,20,cubehelix_25,629.557,fieldSmooth,0.098716,1.9,1,1.2,1,1,1,4359,515
1562,63301,2,9,21,cubehelix_25,629.557,fieldSmooth,0.098716,1.9,1,1.2,0,0,3,6602,511
1562,63302,2,10,22,cubehelix_25,629.557,fieldSmooth,0.098716,1.9,1,1.2,0,0,6,1654,517
1562,63303,2,11,23,cubehelix_25,629.557,fieldSmooth,0.098716,1.9,1,1.2,0,0,6,2486,518
1562,63304,2,12,24,cubehelix_25,629.557,fieldSmooth,0.098716,1.9,1,1.2,0,0,6,4263,515
1562,63281,1,1,1,cubehelix_05,253.356,fieldSmooth,0.098716,1.9,1,1.2,0,0,3,3859,553
1562,63282,1,2,2,cubehelix_05,253.356,fieldSmooth,0.098716,1.9,1,1.2,0,0,2,1122,522
1562,63283,1,3,3,cubehelix_05,253.356,fieldSmooth,0.098716,1.9,1,1.2,0,0,5,956,508
1562,63284,1,4,4,cubehelix_05,253.356,fieldSmooth,0.098716,1.9,1,1.2,0,0,3,884,511
1562,63285,1,5,5,cubehelix_05,253.356,fieldSmooth,0.098716,1.9,1,1.2,0,0,1,1103,507
1562,63286,1,6,6,cubehelix_05,253.356,fieldSmooth,0.098716,1.9,1,1.2,1,1,5,25811,512
1562,63287,1,7,7,cubehelix_05,253.356,fieldSmooth,0.098716,1.9,1,1.2,0,0,6,11897,524
1562,63288,1,8,8,cubehelix_05,253.356,fieldSmooth,0.098716,1.9,1,1.2,1,1,6,5699,521
1562,63289,1,9,9,cubehelix_05,253.356,fieldSmooth,0.098716,1.9,1,1.2,0,0,1,4837,519
1562,63290,1,10,10,cubehelix_05,253.356,fieldSmooth,0.098716,1.9,1,1.2,0,0,4,4956,516
1562,63291,1,11,11,cubehelix_05,253.356,fieldSmooth,0.098716,1.9,1,1.2,1,2,1,13182,517
1562,63292,1,12,12,cubehelix_05,253.356,fieldSmooth,0.098716,1.9,1,1.2,0,0,4,9081,528
1565,63557,3,1,25,cubehelix_15,435.233,fieldSmooth,0.098716,1.9,1,1.2,1,2,4,3938,781
1565,63558,3,2,26,cubehelix_15,435.233,fieldSmooth,0.098716,1.9,1,1.2,1,2,5,24677,724
1565,63559,3,3,27,cubehelix_15,435.233,fieldSmooth,0.098716,1.9,1,1.2,1,2,2,12607,672
1565,63560,3,4,28,cubehelix_15,435.233,fieldSmooth,0.098716,1.9,1,1.2,1,1,3,6787,748
1565,63561,3,5,29,cubehelix_15,435.233,fieldSmooth,0.098716,1.9,1,1.2,1,1,2,10082,721
1565,63562,3,6,30,cubehelix_15,435.233,fieldSmooth,0.098716,1.9,1,1.2,1,2,5,13006,740
1565,63563,3,7,31,cubehelix_15,435.233,fieldSmooth,0.098716,1.9,1,1.2,0,0,1,22396,628
1565,63564,3,8,32,cubehelix_15,435.233,fieldSmooth,0.098716,1.9,1,1.2,1,1,5,4098,775
1565,63565,3,9,33,cubehelix_15,435.233,fieldSmooth,0.098716,1.9,1,1.2,1,1,4,16085,653
1565,63566,3,10,34,cubehelix_15,435.233,fieldSmooth,0.098716,1.9,1,1.2,1,1,2,14621,653
1565,63567,3,11,35,cubehelix_15,435.233,fieldSmooth,0.098716,1.9,1,1.2,1,2,2,12829,716
1565,63568,3,12,36,cubehelix_15,435.233,fieldSmooth,0.098716,1.9,1,1.2,1,1,6,13381,637
1565,63533,1,1,1,cubehelix_25,629.557,fieldSmooth,0.098716,1.9,1,1.2,1,1,1,32422,1652
1565,63534,1,2,2,cubehelix_25,629.557,fieldSmooth,0.098716,1.9,1,1.2,1,1,1,10839,759
1565,63535,1,3,3,cubehelix_25,629.557,fieldSmooth,0.098716,1.9,1,1.2,1,1,5,15011,689
1565,63536,1,4,4,cubehelix_25,629.557,fieldSmooth,0.098716,1.9,1,1.2,1,1,3,12712,639
1565,63537,1,5,5,cubehelix_25,629.557,fieldSmooth,0.098716,1.9,1,1.2,1,1,5,6054,701
1565,63538,1,6,6,cubehelix_25,629.557,fieldSmooth,0.098716,1.9,1,1.2,1,1,4,27219,704
1565,63539,1,7,7,cubehelix_25,629.557,fieldSmooth,0.098716,1.9,1,1.2,1,1,4,10213,716
1565,63540,1,8,8,cubehelix_25,629.557,fieldSmooth,0.098716,1.9,1,1.2,1,1,5,7370,655
1565,63541,1,9,9,cubehelix_25,629.557,fieldSmooth,0.098716,1.9,1,1.2,1,1,1,19832,684
1565,63542,1,10,10,cubehelix_25,629.557,fieldSmooth,0.098716,1.9,1,1.2,1,1,1,7431,629
1565,63543,1,11,11,cubehelix_25,629.557,fieldSmooth,0.098716,1.9,1,1.2,1,1,6,17317,793
1565,63544,1,12,12,cubehelix_25,629.557,fieldSmooth,0.098716,1.9,1,1.2,1,1,4,23547,741
1565,63545,2,1,13,cubehelix_05,253.356,fieldSmooth,0.098716,1.9,1,1.2,1,2,5,11299,787
1565,63546,2,2,14,cubehelix_05,253.356,fieldSmooth,0.098716,1.9,1,1.2,0,0,5,17679,664
1565,63547,2,3,15,cubehelix_05,253.356,fieldSmooth,0.098716,1.9,1,1.2,1,2,3,9485,735
1565,63548,2,4,16,cubehelix_05,253.356,fieldSmooth,0.098716,1.9,1,1.2,1,2,1,19011,712
1565,63549,2,5,17,cubehelix_05,253.356,fieldSmooth,0.098716,1.9,1,1.2,1,2,6,8613,635
1565,63550,2,6,18,cubehelix_05,253.356,fieldSmooth,0.098716,1.9,1,1.2,1,2,3,6914,733
1565,63551,2,7,19,cubehelix_05,253.356,fieldSmooth,0.098716,1.9,1,1.2,1,2,4,21681,728
1565,63552,2,8,20,cubehelix_05,253.356,fieldSmooth,0.098716,1.9,1,1.2,1,2,6,25426,719
1565,63553,2,9,21,cubehelix_05,253.356,fieldSmooth,0.098716,1.9,1,1.2,1,2,6,11058,607
1565,63554,2,10,22,cubehelix_05,253.356,fieldSmooth,0.098716,1.9,1,1.2,1,2,2,18888,762
1565,63555,2,11,23,cubehelix_05,253.356,fieldSmooth,0.098716,1.9,1,1.2,1,2,1,29723,661
1565,63556,2,12,24,cubehelix_05,253.356,fieldSmooth,0.098716,1.9,1,1.2,1,1,4,18669,692
1566,63269,3,1,25,cubehelix_15,435.233,fieldSmooth,0.098716,1.9,1,1.2,1,2,2,29272,451
1566,63270,3,2,26,cubehelix_15,435.233,fieldSmooth,0.098716,1.9,1,1.2,1,2,3,11004,420
1566,63271,3,3,27,cubehelix_15,435.233,fieldSmooth,0.098716,1.9,1,1.2,1,1,6,3668,375
1566,63272,3,4,28,cubehelix_15,435.233,fieldSmooth,0.098716,1.9,1,1.2,0,0,3,6801,401
1566,63273,3,5,29,cubehelix_15,435.233,fieldSmooth,0.098716,1.9,1,1.2,1,1,6,9431,412
1566,63274,3,6,30,cubehelix_15,435.233,fieldSmooth,0.098716,1.9,1,1.2,1,1,3,6857,427
1566,63275,3,7,31,cubehelix_15,435.233,fieldSmooth,0.098716,1.9,1,1.2,1,2,4,5714,377
1566,63276,3,8,32,cubehelix_15,435.233,fieldSmooth,0.098716,1.9,1,1.2,1,1,4,4539,366
1566,63277,3,9,33,cubehelix_15,435.233,fieldSmooth,0.098716,1.9,1,1.2,1,2,6,4537,419
1566,63278,3,10,34,cubehelix_15,435.233,fieldSmooth,0.098716,1.9,1,1.2,1,2,6,3012,423
1566,63279,3,11,35,cubehelix_15,435.233,fieldSmooth,0.098716,1.9,1,1.2,1,1,2,15838,394
1566,63280,3,12,36,cubehelix_15,435.233,fieldSmooth,0.098716,1.9,1,1.2,1,2,4,11911,462
1566,63245,1,1,1,cubehelix_25,629.557,fieldSmooth,0.098716,1.9,1,1.2,1,1,4,4703,908
1566,63246,1,2,2,cubehelix_25,629.557,fieldSmooth,0.098716,1.9,1,1.2,1,1,2,11126,443
1566,63247,1,3,3,cubehelix_25,629.557,fieldSmooth,0.098716,1.9,1,1.2,1,1,5,8340,391
1566,63248,1,4,4,cubehelix_25,629.557,fieldSmooth,0.098716,1.9,1,1.2,1,1,5,7364,402
1566,63249,1,5,5,cubehelix_25,629.557,fieldSmooth,0.098716,1.9,1,1.2,1,1,3,12545,384
1566,63250,1,6,6,cubehelix_25,629.557,fieldSmooth,0.098716,1.9,1,1.2,1,1,1,6588,425
1566,63251,1,7,7,cubehelix_25,629.557,fieldSmooth,0.098716,1.9,1,1.2,1,1,4,11670,438
1566,63252,1,8,8,cubehelix_25,629.557,fieldSmooth,0.098716,1.9,1,1.2,1,1,4,9055,395
1566,63253,1,9,9,cubehelix_25,629.557,fieldSmooth,0.098716,1.9,1,1.2,0,0,6,4258,408
1566,63254,1,10,10,cubehelix_25,629.557,fieldSmooth,0.098716,1.9,1,1.2,1,1,5,12494,450
1566,63255,1,11,11,cubehelix_25,629.557,fieldSmooth,0.098716,1.9,1,1.2,1,1,1,14070,438
1566,63256,1,12,12,cubehelix_25,629.557,fieldSmooth,0.098716,1.9,1,1.2,1,1,5,6639,411
1566,63257,2,1,13,cubehelix_05,253.356,fieldSmooth,0.098716,1.9,1,1.2,1,2,2,21044,424
1566,63258,2,2,14,cubehelix_05,253.356,fieldSmooth,0.098716,1.9,1,1.2,1,2,6,6889,444
1566,63259,2,3,15,cubehelix_05,253.356,fieldSmooth,0.098716,1.9,1,1.2,1,2,4,15397,438
1566,63260,2,4,16,cubehelix_05,253.356,fieldSmooth,0.098716,1.9,1,1.2,1,2,3,3347,400
1566,63261,2,5,17,cubehelix_05,253.356,fieldSmooth,0.098716,1.9,1,1.2,1,1,1,7243,423
1566,63262,2,6,18,cubehelix_05,253.356,fieldSmooth,0.098716,1.9,1,1.2,0,0,3,9664,452
1566,63263,2,7,19,cubehelix_05,253.356,fieldSmooth,0.098716,1.9,1,1.2,1,2,5,5658,417
1566,63264,2,8,20,cubehelix_05,253.356,fieldSmooth,0.098716,1.9,1,1.2,1,2,2,4730,425
1566,63265,2,9,21,cubehelix_05,253.356,fieldSmooth,0.098716,1.9,1,1.2,1,2,1,10648,428
1566,63266,2,10,22,cubehelix_05,253.356,fieldSmooth,0.098716,1.9,1,1.2,1,2,2,5879,508
1566,63267,2,11,23,cubehelix_05,253.356,fieldSmooth,0.098716,1.9,1,1.2,1,1,4,17689,450
1566,63268,2,12,24,cubehelix_05,253.356,fieldSmooth,0.098716,1.9,1,1.2,1,2,5,4830,414
1567,63425,1,1,1,cubehelix_15,435.233,fieldSmooth,0.098716,1.9,1,1.2,1,1,6,5608,2280
1567,63426,1,2,2,cubehelix_15,435.233,fieldSmooth,0.098716,1.9,1,1.2,0,0,1,3596,900
1567,63427,1,3,3,cubehelix_15,435.233,fieldSmooth,0.098716,1.9,1,1.2,1,2,4,4639,815
1567,63428,1,4,4,cubehelix_15,435.233,fieldSmooth,0.098716,1.9,1,1.2,0,0,4,2150,879
1567,63429,1,5,5,cubehelix_15,435.233,fieldSmooth,0.098716,1.9,1,1.2,0,0,3,3324,926
1567,63430,1,6,6,cubehelix_15,435.233,fieldSmooth,0.098716,1.9,1,1.2,0,0,4,2171,892
1567,63431,1,7,7,cubehelix_15,435.233,fieldSmooth,0.098716,1.9,1,1.2,0,0,3,5430,830
1567,63432,1,8,8,cubehelix_15,435.233,fieldSmooth,0.098716,1.9,1,1.2,1,2,4,2858,848
1567,63433,1,9,9,cubehelix_15,435.233,fieldSmooth,0.098716,1.9,1,1.2,1,1,3,3362,914
1567,63434,1,10,10,cubehelix_15,435.233,fieldSmooth,0.098716,1.9,1,1.2,0,0,4,2593,899
1567,63435,1,11,11,cubehelix_15,435.233,fieldSmooth,0.098716,1.9,1,1.2,0,0,5,1508,803
1567,63436,1,12,12,cubehelix_15,435.233,fieldSmooth,0.098716,1.9,1,1.2,0,0,3,2585,817
1567,63449,3,1,25,cubehelix_25,629.557,fieldSmooth,0.098716,1.9,1,1.2,1,2,3,4390,777
1567,63450,3,2,26,cubehelix_25,629.557,fieldSmooth,0.098716,1.9,1,1.2,1,1,1,2651,833
1567,63451,3,3,27,cubehelix_25,629.557,fieldSmooth,0.098716,1.9,1,1.2,0,0,6,3695,793
1567,63452,3,4,28,cubehelix_25,629.557,fieldSmooth,0.098716,1.9,1,1.2,0,0,1,4875,870
1567,63453,3,5,29,cubehelix_25,629.557,fieldSmooth,0.098716,1.9,1,1.2,0,0,1,4827,831
1567,63454,3,6,30,cubehelix_25,629.557,fieldSmooth,0.098716,1.9,1,1.2,0,0,6,4325,915
1567,63455,3,7,31,cubehelix_25,629.557,fieldSmooth,0.098716,1.9,1,1.2,1,1,3,2695,870
1567,63456,3,8,32,cubehelix_25,629.557,fieldSmooth,0.098716,1.9,1,1.2,1,1,2,3606,905
1567,63457,3,9,33,cubehelix_25,629.557,fieldSmooth,0.098716,1.9,1,1.2,1,1,3,3004,852
1567,63458,3,10,34,cubehelix_25,629.557,fieldSmooth,0.098716,1.9,1,1.2,1,1,6,2178,886
1567,63459,3,11,35,cubehelix_25,629.557,fieldSmooth,0.098716,1.9,1,1.2,0,0,6,3681,811
1567,63460,3,12,36,cubehelix_25,629.557,fieldSmooth,0.098716,1.9,1,1.2,0,0,3,3188,830
1567,63437,2,1,13,cubehelix_05,253.356,fieldSmooth,0.098716,1.9,1,1.2,0,0,1,2811,907
1567,63438,2,2,14,cubehelix_05,253.356,fieldSmooth,0.098716,1.9,1,1.2,1,1,1,3098,830
1567,63439,2,3,15,cubehelix_05,253.356,fieldSmooth,0.098716,1.9,1,1.2,0,0,4,1716,779
1567,63440,2,4,16,cubehelix_05,253.356,fieldSmooth,0.098716,1.9,1,1.2,0,0,1,1793,868
1567,63441,2,5,17,cubehelix_05,253.356,fieldSmooth,0.098716,1.9,1,1.2,0,0,5,2394,890
1567,63442,2,6,18,cubehelix_05,253.356,fieldSmooth,0.098716,1.9,1,1.2,0,0,1,1344,875
1567,63443,2,7,19,cubehelix_05,253.356,fieldSmooth,0.098716,1.9,1,1.2,0,0,1,1329,846
1567,63444,2,8,20,cubehelix_05,253.356,fieldSmooth,0.098716,1.9,1,1.2,1,2,3,1620,834
1567,63445,2,9,21,cubehelix_05,253.356,fieldSmooth,0.098716,1.9,1,1.2,0,0,5,1623,834
1567,63446,2,10,22,cubehelix_05,253.356,fieldSmooth,0.098716,1.9,1,1.2,0,0,4,1564,836
1567,63447,2,11,23,cubehelix_05,253.356,fieldSmooth,0.098716,1.9,1,1.2,1,2,2,1463,881
1567,63448,2,12,24,cubehelix_05,253.356,fieldSmooth,0.098716,1.9,1,1.2,0,0,3,1343,794
1569,63605,1,1,1,cubehelix_15,435.233,fieldSmooth,0.098716,1.9,1,1.2,1,2,4,8846,590
1569,63606,1,2,2,cubehelix_15,435.233,fieldSmooth,0.098716,1.9,1,1.2,1,1,5,18121,252
1569,63607,1,3,3,cubehelix_15,435.233,fieldSmooth,0.098716,1.9,1,1.2,1,1,6,7419,235
1569,63608,1,4,4,cubehelix_15,435.233,fieldSmooth,0.098716,1.9,1,1.2,1,2,6,13848,230
1569,63609,1,5,5,cubehelix_15,435.233,fieldSmooth,0.098716,1.9,1,1.2,1,2,4,17505,238
1569,63610,1,6,6,cubehelix_15,435.233,fieldSmooth,0.098716,1.9,1,1.2,1,2,6,25094,231
1569,63611,1,7,7,cubehelix_15,435.233,fieldSmooth,0.098716,1.9,1,1.2,0,0,6,21441,233
1569,63612,1,8,8,cubehelix_15,435.233,fieldSmooth,0.098716,1.9,1,1.2,1,1,4,22992,230
1569,63613,1,9,9,cubehelix_15,435.233,fieldSmooth,0.098716,1.9,1,1.2,1,2,1,36932,230
1569,63614,1,10,10,cubehelix_15,435.233,fieldSmooth,0.098716,1.9,1,1.2,1,1,2,23739,237
1569,63615,1,11,11,cubehelix_15,435.233,fieldSmooth,0.098716,1.9,1,1.2,1,1,1,9749,231
1569,63616,1,12,12,cubehelix_15,435.233,fieldSmooth,0.098716,1.9,1,1.2,1,1,3,8698,233
1569,63629,3,1,25,cubehelix_25,629.557,fieldSmooth,0.098716,1.9,1,1.2,1,2,3,15980,234
1569,63630,3,2,26,cubehelix_25,629.557,fieldSmooth,0.098716,1.9,1,1.2,1,1,3,41248,236
1569,63631,3,3,27,cubehelix_25,629.557,fieldSmooth,0.098716,1.9,1,1.2,1,2,3,20445,232
1569,63632,3,4,28,cubehelix_25,629.557,fieldSmooth,0.098716,1.9,1,1.2,1,2,1,22329,236
1569,63633,3,5,29,cubehelix_25,629.557,fieldSmooth,0.098716,1.9,1,1.2,1,1,3,23612,230
1569,63634,3,6,30,cubehelix_25,629.557,fieldSmooth,0.098716,1.9,1,1.2,1,1,5,50203,235
1569,63635,3,7,31,cubehelix_25,629.557,fieldSmooth,0.098716,1.9,1,1.2,1,1,1,10377,240
1569,63636,3,8,32,cubehelix_25,629.557,fieldSmooth,0.098716,1.9,1,1.2,1,1,5,15669,238
1569,63637,3,9,33,cubehelix_25,629.557,fieldSmooth,0.098716,1.9,1,1.2,1,1,4,10443,231
1569,63638,3,10,34,cubehelix_25,629.557,fieldSmooth,0.098716,1.9,1,1.2,1,2,1,22679,230
1569,63639,3,11,35,cubehelix_25,629.557,fieldSmooth,0.098716,1.9,1,1.2,1,2,2,10414,231
1569,63640,3,12,36,cubehelix_25,629.557,fieldSmooth,0.098716,1.9,1,1.2,1,1,5,9613,229
1569,63617,2,1,13,cubehelix_05,253.356,fieldSmooth,0.098716,1.9,1,1.2,1,1,3,12005,256
1569,63618,2,2,14,cubehelix_05,253.356,fieldSmooth,0.098716,1.9,1,1.2,0,0,3,6795,243
1569,63619,2,3,15,cubehelix_05,253.356,fieldSmooth,0.098716,1.9,1,1.2,1,1,1,19489,229
1569,63620,2,4,16,cubehelix_05,253.356,fieldSmooth,0.098716,1.9,1,1.2,0,0,5,34188,233
1569,63621,2,5,17,cubehelix_05,253.356,fieldSmooth,0.098716,1.9,1,1.2,1,1,6,17913,233
1569,63622,2,6,18,cubehelix_05,253.356,fieldSmooth,0.098716,1.9,1,1.2,1,1,6,32668,247
1569,63623,2,7,19,cubehelix_05,253.356,fieldSmooth,0.098716,1.9,1,1.2,1,2,6,16154,231
1569,63624,2,8,20,cubehelix_05,253.356,fieldSmooth,0.098716,1.9,1,1.2,1,2,5,34778,260
1569,63625,2,9,21,cubehelix_05,253.356,fieldSmooth,0.098716,1.9,1,1.2,1,2,5,11305,238
1569,63626,2,10,22,cubehelix_05,253.356,fieldSmooth,0.098716,1.9,1,1.2,1,1,6,41898,237
1569,63627,2,11,23,cubehelix_05,253.356,fieldSmooth,0.098716,1.9,1,1.2,1,2,4,24710,233
1569,63628,2,12,24,cubehelix_05,253.356,fieldSmooth,0.098716,1.9,1,1.2,1,2,6,13919,235
1571,63413,3,1,25,cubehelix_15,435.233,fieldSmooth,0.098716,1.9,1,1.2,0,0,3,18050,759
1571,63414,3,2,26,cubehelix_15,435.233,fieldSmooth,0.098716,1.9,1,1.2,1,1,2,10219,901
1571,63415,3,3,27,cubehelix_15,435.233,fieldSmooth,0.098716,1.9,1,1.2,1,1,3,5972,810
1571,63416,3,4,28,cubehelix_15,435.233,fieldSmooth,0.098716,1.9,1,1.2,1,1,2,15660,765
1571,63417,3,5,29,cubehelix_15,435.233,fieldSmooth,0.098716,1.9,1,1.2,1,1,5,27278,757
1571,63418,3,6,30,cubehelix_15,435.233,fieldSmooth,0.098716,1.9,1,1.2,1,2,5,7808,958
1571,63419,3,7,31,cubehelix_15,435.233,fieldSmooth,0.098716,1.9,1,1.2,0,0,2,24865,846
1571,63420,3,8,32,cubehelix_15,435.233,fieldSmooth,0.098716,1.9,1,1.2,0,0,6,13322,821
1571,63421,3,9,33,cubehelix_15,435.233,fieldSmooth,0.098716,1.9,1,1.2,0,0,1,15124,884
1571,63422,3,10,34,cubehelix_15,435.233,fieldSmooth,0.098716,1.9,1,1.2,1,1,6,8550,760
1571,63423,3,11,35,cubehelix_15,435.233,fieldSmooth,0.098716,1.9,1,1.2,1,1,4,5634,812
1571,63424,3,12,36,cubehelix_15,435.233,fieldSmooth,0.098716,1.9,1,1.2,1,1,3,7605,756
1571,63389,1,1,1,cubehelix_25,629.557,fieldSmooth,0.098716,1.9,1,1.2,1,1,1,12841,1807
1571,63390,1,2,2,cubehelix_25,629.557,fieldSmooth,0.098716,1.9,1,1.2,1,1,4,10915,828
1571,63391,1,3,3,cubehelix_25,629.557,fieldSmooth,0.098716,1.9,1,1.2,1,1,6,5734,853
1571,63392,1,4,4,cubehelix_25,629.557,fieldSmooth,0.098716,1.9,1,1.2,1,2,1,8165,958
1571,63393,1,5,5,cubehelix_25,629.557,fieldSmooth,0.098716,1.9,1,1.2,1,1,3,7106,980
1571,63394,1,6,6,cubehelix_25,629.557,fieldSmooth,0.098716,1.9,1,1.2,1,1,1,4567,912
1571,63395,1,7,7,cubehelix_25,629.557,fieldSmooth,0.098716,1.9,1,1.2,0,0,6,10683,1026
1571,63396,1,8,8,cubehelix_25,629.557,fieldSmooth,0.098716,1.9,1,1.2,0,0,1,6095,934
1571,63397,1,9,9,cubehelix_25,629.557,fieldSmooth,0.098716,1.9,1,1.2,0,0,1,4196,800
1571,63398,1,10,10,cubehelix_25,629.557,fieldSmooth,0.098716,1.9,1,1.2,1,1,2,6013,725
1571,63399,1,11,11,cubehelix_25,629.557,fieldSmooth,0.098716,1.9,1,1.2,0,0,4,5496,734
1571,63400,1,12,12,cubehelix_25,629.557,fieldSmooth,0.098716,1.9,1,1.2,1,1,5,7591,712
1571,63401,2,1,13,cubehelix_05,253.356,fieldSmooth,0.098716,1.9,1,1.2,0,0,1,6266,847
1571,63402,2,2,14,cubehelix_05,253.356,fieldSmooth,0.098716,1.9,1,1.2,1,2,6,4323,788
1571,63403,2,3,15,cubehelix_05,253.356,fieldSmooth,0.098716,1.9,1,1.2,1,1,1,9966,954
1571,63404,2,4,16,cubehelix_05,253.356,fieldSmooth,0.098716,1.9,1,1.2,1,1,4,17967,840
1571,63405,2,5,17,cubehelix_05,253.356,fieldSmooth,0.098716,1.9,1,1.2,1,1,3,15717,810
1571,63406,2,6,18,cubehelix_05,253.356,fieldSmooth,0.098716,1.9,1,1.2,1,1,1,6821,953
1571,63407,2,7,19,cubehelix_05,253.356,fieldSmooth,0.098716,1.9,1,1.2,1,1,4,4229,742
1571,63408,2,8,20,cubehelix_05,253.356,fieldSmooth,0.098716,1.9,1,1.2,0,0,6,7486,938
1571,63409,2,9,21,cubehelix_05,253.356,fieldSmooth,0.098716,1.9,1,1.2,1,2,6,18943,840
1571,63410,2,10,22,cubehelix_05,253.356,fieldSmooth,0.098716,1.9,1,1.2,0,0,3,13911,810
1571,63411,2,11,23,cubehelix_05,253.356,fieldSmooth,0.098716,1.9,1,1.2,1,2,5,9546,1004
1571,63412,2,12,24,cubehelix_05,253.356,fieldSmooth,0.098716,1.9,1,1.2,1,2,6,19577,1088
1572,63521,3,1,25,cubehelix_15,435.233,fieldSmooth,0.098716,1.9,1,1.2,1,1,6,12398,681
1572,63522,3,2,26,cubehelix_15,435.233,fieldSmooth,0.098716,1.9,1,1.2,1,1,5,12323,711
1572,63523,3,3,27,cubehelix_15,435.233,fieldSmooth,0.098716,1.9,1,1.2,1,1,2,3589,759
1572,63524,3,4,28,cubehelix_15,435.233,fieldSmooth,0.098716,1.9,1,1.2,0,0,3,8568,1030
1572,63525,3,5,29,cubehelix_15,435.233,fieldSmooth,0.098716,1.9,1,1.2,1,2,5,13070,606
1572,63526,3,6,30,cubehelix_15,435.233,fieldSmooth,0.098716,1.9,1,1.2,1,1,4,6305,1054
1572,63527,3,7,31,cubehelix_15,435.233,fieldSmooth,0.098716,1.9,1,1.2,1,1,6,7015,707
1572,63528,3,8,32,cubehelix_15,435.233,fieldSmooth,0.098716,1.9,1,1.2,1,2,6,8096,730
1572,63529,3,9,33,cubehelix_15,435.233,fieldSmooth,0.098716,1.9,1,1.2,1,1,1,19108,734
1572,63530,3,10,34,cubehelix_15,435.233,fieldSmooth,0.098716,1.9,1,1.2,1,2,6,6248,679
1572,63531,3,11,35,cubehelix_15,435.233,fieldSmooth,0.098716,1.9,1,1.2,1,1,6,12313,622
1572,63532,3,12,36,cubehelix_15,435.233,fieldSmooth,0.098716,1.9,1,1.2,0,0,6,3923,739
1572,63497,1,1,1,cubehelix_25,629.557,fieldSmooth,0.098716,1.9,1,1.2,1,1,5,5139,2421
1572,63498,1,2,2,cubehelix_25,629.557,fieldSmooth,0.098716,1.9,1,1.2,0,0,4,15177,670
1572,63499,1,3,3,cubehelix_25,629.557,fieldSmooth,0.098716,1.9,1,1.2,1,1,6,7955,1029
1572,63500,1,4,4,cubehelix_25,629.557,fieldSmooth,0.098716,1.9,1,1.2,1,1,6,15925,978
1572,63501,1,5,5,cubehelix_25,629.557,fieldSmooth,0.098716,1.9,1,1.2,1,2,5,22787,728
1572,63502,1,6,6,cubehelix_25,629.557,fieldSmooth,0.098716,1.9,1,1.2,1,1,6,5622,605
1572,63503,1,7,7,cubehelix_25,629.557,fieldSmooth,0.098716,1.9,1,1.2,1,2,6,16451,678
1572,63504,1,8,8,cubehelix_25,629.557,fieldSmooth,0.098716,1.9,1,1.2,1,1,6,20215,861
1572,63505,1,9,9,cubehelix_25,629.557,fieldSmooth,0.098716,1.9,1,1.2,0,0,1,20941,661
1572,63506,1,10,10,cubehelix_25,629.557,fieldSmooth,0.098716,1.9,1,1.2,1,1,1,10334,898
1572,63507,1,11,11,cubehelix_25,629.557,fieldSmooth,0.098716,1.9,1,1.2,0,0,1,89441,712
1572,63508,1,12,12,cubehelix_25,629.557,fieldSmooth,0.098716,1.9,1,1.2,1,1,2,12193,803
1572,63509,2,1,13,cubehelix_05,253.356,fieldSmooth,0.098716,1.9,1,1.2,1,2,4,16943,745
1572,63510,2,2,14,cubehelix_05,253.356,fieldSmooth,0.098716,1.9,1,1.2,1,1,6,6459,665
1572,63511,2,3,15,cubehelix_05,253.356,fieldSmooth,0.098716,1.9,1,1.2,1,1,1,10178,828
1572,63512,2,4,16,cubehelix_05,253.356,fieldSmooth,0.098716,1.9,1,1.2,0,0,3,9304,653
1572,63513,2,5,17,cubehelix_05,253.356,fieldSmooth,0.098716,1.9,1,1.2,1,1,6,12322,711
1572,63514,2,6,18,cubehelix_05,253.356,fieldSmooth,0.098716,1.9,1,1.2,1,1,4,11101,826
1572,63515,2,7,19,cubehelix_05,253.356,fieldSmooth,0.098716,1.9,1,1.2,1,2,6,4192,776
1572,63516,2,8,20,cubehelix_05,253.356,fieldSmooth,0.098716,1.9,1,1.2,0,0,4,9383,729
1572,63517,2,9,21,cubehelix_05,253.356,fieldSmooth,0.098716,1.9,1,1.2,1,2,4,6252,704
1572,63518,2,10,22,cubehelix_05,253.356,fieldSmooth,0.098716,1.9,1,1.2,0,0,6,5662,612
1572,63519,2,11,23,cubehelix_05,253.356,fieldSmooth,0.098716,1.9,1,1.2,1,2,6,6100,892
1572,63520,2,12,24,cubehelix_05,253.356,fieldSmooth,0.098716,1.9,1,1.2,1,1,2,9002,618
1573,63869,2,1,13,cubehelix_15,435.233,fieldSmooth,0.098716,1.9,1,1.2,1,1,6,5622,1213
1573,63870,2,2,14,cubehelix_15,435.233,fieldSmooth,0.098716,1.9,1,1.2,0,0,6,5542,946
1573,63871,2,3,15,cubehelix_15,435.233,fieldSmooth,0.098716,1.9,1,1.2,1,2,4,3800,931
1573,63872,2,4,16,cubehelix_15,435.233,fieldSmooth,0.098716,1.9,1,1.2,0,0,3,17991,1167
1573,63873,2,5,17,cubehelix_15,435.233,fieldSmooth,0.098716,1.9,1,1.2,0,0,6,4113,978
1573,63874,2,6,18,cubehelix_15,435.233,fieldSmooth,0.098716,1.9,1,1.2,0,0,5,6597,1006
1573,63875,2,7,19,cubehelix_15,435.233,fieldSmooth,0.098716,1.9,1,1.2,1,1,3,8203,1114
1573,63876,2,8,20,cubehelix_15,435.233,fieldSmooth,0.098716,1.9,1,1.2,0,0,4,12930,1032
1573,63877,2,9,21,cubehelix_15,435.233,fieldSmooth,0.098716,1.9,1,1.2,0,0,5,149463,1150
1573,63878,2,10,22,cubehelix_15,435.233,fieldSmooth,0.098716,1.9,1,1.2,1,2,4,4529,1042
1573,63879,2,11,23,cubehelix_15,435.233,fieldSmooth,0.098716,1.9,1,1.2,1,1,3,4123,1048
1573,63880,2,12,24,cubehelix_15,435.233,fieldSmooth,0.098716,1.9,1,1.2,1,1,5,5628,1030
1573,63857,1,1,1,cubehelix_25,629.557,fieldSmooth,0.098716,1.9,1,1.2,0,0,1,8557,1004
1573,63858,1,2,2,cubehelix_25,629.557,fieldSmooth,0.098716,1.9,1,1.2,1,2,6,7591,1022
1573,63859,1,3,3,cubehelix_25,629.557,fieldSmooth,0.098716,1.9,1,1.2,0,0,6,23118,932
1573,63860,1,4,4,cubehelix_25,629.557,fieldSmooth,0.098716,1.9,1,1.2,1,1,4,2391,1130
1573,63861,1,5,5,cubehelix_25,629.557,fieldSmooth,0.098716,1.9,1,1.2,1,1,6,4071,1001
1573,63862,1,6,6,cubehelix_25,629.557,fieldSmooth,0.098716,1.9,1,1.2,1,1,3,5410,920
1573,63863,1,7,7,cubehelix_25,629.557,fieldSmooth,0.098716,1.9,1,1.2,0,0,2,2930,1005
1573,63864,1,8,8,cubehelix_25,629.557,fieldSmooth,0.098716,1.9,1,1.2,1,1,1,3448,1018
1573,63865,1,9,9,cubehelix_25,629.557,fieldSmooth,0.098716,1.9,1,1.2,1,1,3,150243,965
1573,63866,1,10,10,cubehelix_25,629.557,fieldSmooth,0.098716,1.9,1,1.2,0,0,3,3830,1119
1573,63867,1,11,11,cubehelix_25,629.557,fieldSmooth,0.098716,1.9,1,1.2,1,1,5,4600,1138
1573,63868,1,12,12,cubehelix_25,629.557,fieldSmooth,0.098716,1.9,1,1.2,1,1,5,4041,997
1573,63881,3,1,25,cubehelix_05,253.356,fieldSmooth,0.098716,1.9,1,1.2,1,1,2,9015,1093
1573,63882,3,2,26,cubehelix_05,253.356,fieldSmooth,0.098716,1.9,1,1.2,0,0,6,3971,1064
1573,63883,3,3,27,cubehelix_05,253.356,fieldSmooth,0.098716,1.9,1,1.2,0,0,2,3550,1084
1573,63884,3,4,28,cubehelix_05,253.356,fieldSmooth,0.098716,1.9,1,1.2,0,0,1,2710,1019
1573,63885,3,5,29,cubehelix_05,253.356,fieldSmooth,0.098716,1.9,1,1.2,1,2,1,4812,1324
1573,63886,3,6,30,cubehelix_05,253.356,fieldSmooth,0.098716,1.9,1,1.2,0,0,3,2909,1243
1573,63887,3,7,31,cubehelix_05,253.356,fieldSmooth,0.098716,1.9,1,1.2,0,0,6,4047,939
1573,63888,3,8,32,cubehelix_05,253.356,fieldSmooth,0.098716,1.9,1,1.2,1,2,2,2250,960
1573,63889,3,9,33,cubehelix_05,253.356,fieldSmooth,0.098716,1.9,1,1.2,0,0,6,4178,1145
1573,63890,3,10,34,cubehelix_05,253.356,fieldSmooth,0.098716,1.9,1,1.2,1,1,1,3279,957
1573,63891,3,11,35,cubehelix_05,253.356,fieldSmooth,0.098716,1.9,1,1.2,1,1,6,2507,961
1573,63892,3,12,36,cubehelix_05,253.356,fieldSmooth,0.098716,1.9,1,1.2,0,0,1,3063,938
1576,63569,1,1,1,cubehelix_15,435.233,fieldSmooth,0.098716,1.9,1,1.2,1,1,3,8617,3427
1576,63570,1,2,2,cubehelix_15,435.233,fieldSmooth,0.098716,1.9,1,1.2,0,0,6,5794,2635
1576,63571,1,3,3,cubehelix_15,435.233,fieldSmooth,0.098716,1.9,1,1.2,1,2,1,4364,2543
1576,63572,1,4,4,cubehelix_15,435.233,fieldSmooth,0.098716,1.9,1,1.2,0,0,6,3262,2449
1576,63573,1,5,5,cubehelix_15,435.233,fieldSmooth,0.098716,1.9,1,1.2,1,1,5,5339,2464
1576,63574,1,6,6,cubehelix_15,435.233,fieldSmooth,0.098716,1.9,1,1.2,0,0,3,7544,2406
1576,63575,1,7,7,cubehelix_15,435.233,fieldSmooth,0.098716,1.9,1,1.2,1,1,1,8508,2445
1576,63576,1,8,8,cubehelix_15,435.233,fieldSmooth,0.098716,1.9,1,1.2,0,0,1,6233,2474
1576,63577,1,9,9,cubehelix_15,435.233,fieldSmooth,0.098716,1.9,1,1.2,1,1,4,12316,2415
1576,63578,1,10,10,cubehelix_15,435.233,fieldSmooth,0.098716,1.9,1,1.2,0,0,5,7778,2377
1576,63579,1,11,11,cubehelix_15,435.233,fieldSmooth,0.098716,1.9,1,1.2,1,2,4,7726,2525
1576,63580,1,12,12,cubehelix_15,435.233,fieldSmooth,0.098716,1.9,1,1.2,0,0,3,2971,2446
1576,63581,2,1,13,cubehelix_25,629.557,fieldSmooth,0.098716,1.9,1,1.2,1,1,5,5941,3364
1576,63582,2,2,14,cubehelix_25,629.557,fieldSmooth,0.098716,1.9,1,1.2,1,1,4,4802,2505
1576,63583,2,3,15,cubehelix_25,629.557,fieldSmooth,0.098716,1.9,1,1.2,0,0,4,2182,2525
1576,63584,2,4,16,cubehelix_25,629.557,fieldSmooth,0.098716,1.9,1,1.2,1,1,6,2934,2459
1576,63585,2,5,17,cubehelix_25,629.557,fieldSmooth,0.098716,1.9,1,1.2,1,1,1,3471,2574
1576,63586,2,6,18,cubehelix_25,629.557,fieldSmooth,0.098716,1.9,1,1.2,0,0,1,7524,2421
1576,63587,2,7,19,cubehelix_25,629.557,fieldSmooth,0.098716,1.9,1,1.2,1,1,4,5802,2454
1576,63588,2,8,20,cubehelix_25,629.557,fieldSmooth,0.098716,1.9,1,1.2,0,0,3,5607,2464
1576,63589,2,9,21,cubehelix_25,629.557,fieldSmooth,0.098716,1.9,1,1.2,1,1,2,6128,2567
1576,63590,2,10,22,cubehelix_25,629.557,fieldSmooth,0.098716,1.9,1,1.2,0,0,4,6135,2659
1576,63591,2,11,23,cubehelix_25,629.557,fieldSmooth,0.098716,1.9,1,1.2,1,1,4,2464,5389
1576,63592,2,12,24,cubehelix_25,629.557,fieldSmooth,0.098716,1.9,1,1.2,1,1,4,8623,3386
1576,63593,3,1,25,cubehelix_05,253.356,fieldSmooth,0.098716,1.9,1,1.2,1,1,5,5743,2702
1576,63594,3,2,26,cubehelix_05,253.356,fieldSmooth,0.098716,1.9,1,1.2,1,2,2,4998,2402
1576,63595,3,3,27,cubehelix_05,253.356,fieldSmooth,0.098716,1.9,1,1.2,1,2,6,6561,2439
1576,63596,3,4,28,cubehelix_05,253.356,fieldSmooth,0.098716,1.9,1,1.2,0,0,3,10069,2507
1576,63597,3,5,29,cubehelix_05,253.356,fieldSmooth,0.098716,1.9,1,1.2,1,2,6,6572,2610
1576,63598,3,6,30,cubehelix_05,253.356,fieldSmooth,0.098716,1.9,1,1.2,1,1,6,8105,2418
1576,63599,3,7,31,cubehelix_05,253.356,fieldSmooth,0.098716,1.9,1,1.2,1,2,3,13234,2444
1576,63600,3,8,32,cubehelix_05,253.356,fieldSmooth,0.098716,1.9,1,1.2,1,2,3,11899,2684
1576,63601,3,9,33,cubehelix_05,253.356,fieldSmooth,0.098716,1.9,1,1.2,0,0,6,7144,2454
1576,63602,3,10,34,cubehelix_05,253.356,fieldSmooth,0.098716,1.9,1,1.2,1,2,3,5226,2831
1576,63603,3,11,35,cubehelix_05,253.356,fieldSmooth,0.098716,1.9,1,1.2,1,2,1,4808,2451
1576,63604,3,12,36,cubehelix_05,253.356,fieldSmooth,0.098716,1.9,1,1.2,1,2,4,3829,2367
1581,64337,2,1,13,cubehelix_15,435.233,fieldSmooth,0.098716,1.9,1,1.2,1,1,3,16789,976
1581,64338,2,2,14,cubehelix_15,435.233,fieldSmooth,0.098716,1.9,1,1.2,0,0,4,17428,1024
1581,64339,2,3,15,cubehelix_15,435.233,fieldSmooth,0.098716,1.9,1,1.2,1,2,3,16868,906
1581,64340,2,4,16,cubehelix_15,435.233,fieldSmooth,0.098716,1.9,1,1.2,0,0,2,26888,986
1581,64341,2,5,17,cubehelix_15,435.233,fieldSmooth,0.098716,1.9,1,1.2,0,0,3,11236,1024
1581,64342,2,6,18,cubehelix_15,435.233,fieldSmooth,0.098716,1.9,1,1.2,0,0,4,16558,913
1581,64343,2,7,19,cubehelix_15,435.233,fieldSmooth,0.098716,1.9,1,1.2,1,2,3,12642,931
1581,64344,2,8,20,cubehelix_15,435.233,fieldSmooth,0.098716,1.9,1,1.2,0,0,5,17503,937
1581,64345,2,9,21,cubehelix_15,435.233,fieldSmooth,0.098716,1.9,1,1.2,0,0,3,16017,999
1581,64346,2,10,22,cubehelix_15,435.233,fieldSmooth,0.098716,1.9,1,1.2,1,1,6,17180,932
1581,64347,2,11,23,cubehelix_15,435.233,fieldSmooth,0.098716,1.9,1,1.2,0,0,3,14536,984
1581,64348,2,12,24,cubehelix_15,435.233,fieldSmooth,0.098716,1.9,1,1.2,0,0,2,16310,960
1581,64349,3,1,25,cubehelix_25,629.557,fieldSmooth,0.098716,1.9,1,1.2,0,0,2,21839,1033
1581,64350,3,2,26,cubehelix_25,629.557,fieldSmooth,0.098716,1.9,1,1.2,1,2,6,20449,1182
1581,64351,3,3,27,cubehelix_25,629.557,fieldSmooth,0.098716,1.9,1,1.2,1,2,6,21122,1176
1581,64352,3,4,28,cubehelix_25,629.557,fieldSmooth,0.098716,1.9,1,1.2,0,0,1,21082,967
1581,64353,3,5,29,cubehelix_25,629.557,fieldSmooth,0.098716,1.9,1,1.2,0,0,3,39924,970
1581,64354,3,6,30,cubehelix_25,629.557,fieldSmooth,0.098716,1.9,1,1.2,0,0,6,41036,910
1581,64355,3,7,31,cubehelix_25,629.557,fieldSmooth,0.098716,1.9,1,1.2,0,0,4,84870,955
1581,64356,3,8,32,cubehelix_25,629.557,fieldSmooth,0.098716,1.9,1,1.2,1,1,3,23267,990
1581,64357,3,9,33,cubehelix_25,629.557,fieldSmooth,0.098716,1.9,1,1.2,0,0,4,9174,1007
1581,64358,3,10,34,cubehelix_25,629.557,fieldSmooth,0.098716,1.9,1,1.2,1,2,5,14051,913
1581,64359,3,11,35,cubehelix_25,629.557,fieldSmooth,0.098716,1.9,1,1.2,0,0,5,12778,958
1581,64360,3,12,36,cubehelix_25,629.557,fieldSmooth,0.098716,1.9,1,1.2,0,0,3,25532,940
1581,64325,1,1,1,cubehelix_05,253.356,fieldSmooth,0.098716,1.9,1,1.2,1,1,3,45075,1984
1581,64326,1,2,2,cubehelix_05,253.356,fieldSmooth,0.098716,1.9,1,1.2,0,0,1,8974,1028
1581,64327,1,3,3,cubehelix_05,253.356,fieldSmooth,0.098716,1.9,1,1.2,0,0,3,18336,1002
1581,64328,1,4,4,cubehelix_05,253.356,fieldSmooth,0.098716,1.9,1,1.2,0,0,2,18494,942
1581,64329,1,5,5,cubehelix_05,253.356,fieldSmooth,0.098716,1.9,1,1.2,1,1,6,78774,902
1581,64330,1,6,6,cubehelix_05,253.356,fieldSmooth,0.098716,1.9,1,1.2,0,0,2,18445,1088
1581,64331,1,7,7,cubehelix_05,253.356,fieldSmooth,0.098716,1.9,1,1.2,0,0,3,10317,1052
1581,64332,1,8,8,cubehelix_05,253.356,fieldSmooth,0.098716,1.9,1,1.2,0,0,6,47074,937
1581,64333,1,9,9,cubehelix_05,253.356,fieldSmooth,0.098716,1.9,1,1.2,0,0,3,7261,947
1581,64334,1,10,10,cubehelix_05,253.356,fieldSmooth,0.098716,1.9,1,1.2,0,0,5,26047,921
1581,64335,1,11,11,cubehelix_05,253.356,fieldSmooth,0.098716,1.9,1,1.2,0,0,4,13885,964
1581,64336,1,12,12,cubehelix_05,253.356,fieldSmooth,0.098716,1.9,1,1.2,1,2,3,34123,1020
1582,63893,1,1,1,cubehelix_15,435.233,fieldSmooth,0.098716,1.9,1,1.2,1,1,2,42976,709
1582,63894,1,2,2,cubehelix_15,435.233,fieldSmooth,0.098716,1.9,1,1.2,1,1,1,2220,342
1582,63895,1,3,3,cubehelix_15,435.233,fieldSmooth,0.098716,1.9,1,1.2,1,1,2,27573,316
1582,63896,1,4,4,cubehelix_15,435.233,fieldSmooth,0.098716,1.9,1,1.2,1,1,6,31473,308
1582,63897,1,5,5,cubehelix_15,435.233,fieldSmooth,0.098716,1.9,1,1.2,1,1,6,25631,310
1582,63898,1,6,6,cubehelix_15,435.233,fieldSmooth,0.098716,1.9,1,1.2,1,1,3,34006,312
1582,63899,1,7,7,cubehelix_15,435.233,fieldSmooth,0.098716,1.9,1,1.2,1,2,5,3363,318
1582,63900,1,8,8,cubehelix_15,435.233,fieldSmooth,0.098716,1.9,1,1.2,1,2,5,25507,309
1582,63901,1,9,9,cubehelix_15,435.233,fieldSmooth,0.098716,1.9,1,1.2,1,1,3,33325,315
1582,63902,1,10,10,cubehelix_15,435.233,fieldSmooth,0.098716,1.9,1,1.2,1,1,2,14054,311
1582,63903,1,11,11,cubehelix_15,435.233,fieldSmooth,0.098716,1.9,1,1.2,1,1,4,8768,323
1582,63904,1,12,12,cubehelix_15,435.233,fieldSmooth,0.098716,1.9,1,1.2,1,1,4,3459,329
1582,63917,3,1,25,cubehelix_25,629.557,fieldSmooth,0.098716,1.9,1,1.2,1,1,5,30679,309
1582,63918,3,2,26,cubehelix_25,629.557,fieldSmooth,0.098716,1.9,1,1.2,1,1,1,4771,309
1582,63919,3,3,27,cubehelix_25,629.557,fieldSmooth,0.098716,1.9,1,1.2,1,1,2,26829,302
1582,63920,3,4,28,cubehelix_25,629.557,fieldSmooth,0.098716,1.9,1,1.2,1,1,6,23625,310
1582,63921,3,5,29,cubehelix_25,629.557,fieldSmooth,0.098716,1.9,1,1.2,1,1,6,5773,305
1582,63922,3,6,30,cubehelix_25,629.557,fieldSmooth,0.098716,1.9,1,1.2,1,1,5,14103,307
1582,63923,3,7,31,cubehelix_25,629.557,fieldSmooth,0.098716,1.9,1,1.2,0,0,6,41226,309
1582,63924,3,8,32,cubehelix_25,629.557,fieldSmooth,0.098716,1.9,1,1.2,1,1,1,2428,307
1582,63925,3,9,33,cubehelix_25,629.557,fieldSmooth,0.098716,1.9,1,1.2,1,1,2,10620,297
1582,63926,3,10,34,cubehelix_25,629.557,fieldSmooth,0.098716,1.9,1,1.2,1,1,6,5924,303
1582,63927,3,11,35,cubehelix_25,629.557,fieldSmooth,0.098716,1.9,1,1.2,1,1,2,8052,321
1582,63928,3,12,36,cubehelix_25,629.557,fieldSmooth,0.098716,1.9,1,1.2,1,1,1,3410,311
1582,63905,2,1,13,cubehelix_05,253.356,fieldSmooth,0.098716,1.9,1,1.2,1,2,6,6263,303
1582,63906,2,2,14,cubehelix_05,253.356,fieldSmooth,0.098716,1.9,1,1.2,1,1,2,24647,313
1582,63907,2,3,15,cubehelix_05,253.356,fieldSmooth,0.098716,1.9,1,1.2,1,2,2,25840,319
1582,63908,2,4,16,cubehelix_05,253.356,fieldSmooth,0.098716,1.9,1,1.2,1,2,2,10464,316
1582,63909,2,5,17,cubehelix_05,253.356,fieldSmooth,0.098716,1.9,1,1.2,1,2,4,25722,307
1582,63910,2,6,18,cubehelix_05,253.356,fieldSmooth,0.098716,1.9,1,1.2,1,1,2,48442,322
1582,63911,2,7,19,cubehelix_05,253.356,fieldSmooth,0.098716,1.9,1,1.2,1,2,6,45604,315
1582,63912,2,8,20,cubehelix_05,253.356,fieldSmooth,0.098716,1.9,1,1.2,1,1,1,34311,319
1582,63913,2,9,21,cubehelix_05,253.356,fieldSmooth,0.098716,1.9,1,1.2,1,1,3,11687,317
1582,63914,2,10,22,cubehelix_05,253.356,fieldSmooth,0.098716,1.9,1,1.2,0,0,1,99917,326
1582,63915,2,11,23,cubehelix_05,253.356,fieldSmooth,0.098716,1.9,1,1.2,1,2,2,14354,300
1582,63916,2,12,24,cubehelix_05,253.356,fieldSmooth,0.098716,1.9,1,1.2,1,2,2,8981,302
1583,64085,2,1,13,cubehelix_15,435.233,fieldSmooth,0.098716,1.9,1,1.2,0,0,1,29550,610
1583,64086,2,2,14,cubehelix_15,435.233,fieldSmooth,0.098716,1.9,1,1.2,0,0,3,27810,526
1583,64087,2,3,15,cubehelix_15,435.233,fieldSmooth,0.098716,1.9,1,1.2,0,0,5,29242,524
1583,64088,2,4,16,cubehelix_15,435.233,fieldSmooth,0.098716,1.9,1,1.2,1,1,2,6320,546
1583,64089,2,5,17,cubehelix_15,435.233,fieldSmooth,0.098716,1.9,1,1.2,1,2,3,8950,530
1583,64090,2,6,18,cubehelix_15,435.233,fieldSmooth,0.098716,1.9,1,1.2,1,1,3,23038,588
1583,64091,2,7,19,cubehelix_15,435.233,fieldSmooth,0.098716,1.9,1,1.2,1,1,2,20455,502
1583,64092,2,8,20,cubehelix_15,435.233,fieldSmooth,0.098716,1.9,1,1.2,1,1,2,13320,557
1583,64093,2,9,21,cubehelix_15,435.233,fieldSmooth,0.098716,1.9,1,1.2,1,1,3,16962,540
1583,64094,2,10,22,cubehelix_15,435.233,fieldSmooth,0.098716,1.9,1,1.2,1,1,4,10101,545
1583,64095,2,11,23,cubehelix_15,435.233,fieldSmooth,0.098716,1.9,1,1.2,1,2,3,20694,493
1583,64096,2,12,24,cubehelix_15,435.233,fieldSmooth,0.098716,1.9,1,1.2,1,1,2,16000,527
1583,64073,1,1,1,cubehelix_25,629.557,fieldSmooth,0.098716,1.9,1,1.2,1,1,5,15093,1945
1583,64074,1,2,2,cubehelix_25,629.557,fieldSmooth,0.098716,1.9,1,1.2,1,1,4,32576,651
1583,64075,1,3,3,cubehelix_25,629.557,fieldSmooth,0.098716,1.9,1,1.2,1,1,6,6833,583
1583,64076,1,4,4,cubehelix_25,629.557,fieldSmooth,0.098716,1.9,1,1.2,1,1,4,16078,586
1583,64077,1,5,5,cubehelix_25,629.557,fieldSmooth,0.098716,1.9,1,1.2,1,1,6,17051,582
1583,64078,1,6,6,cubehelix_25,629.557,fieldSmooth,0.098716,1.9,1,1.2,1,1,1,43980,545
1583,64079,1,7,7,cubehelix_25,629.557,fieldSmooth,0.098716,1.9,1,1.2,1,1,5,8974,534
1583,64080,1,8,8,cubehelix_25,629.557,fieldSmooth,0.098716,1.9,1,1.2,1,1,3,14075,569
1583,64081,1,9,9,cubehelix_25,629.557,fieldSmooth,0.098716,1.9,1,1.2,1,1,5,14375,533
1583,64082,1,10,10,cubehelix_25,629.557,fieldSmooth,0.098716,1.9,1,1.2,0,0,5,30458,647
1583,64083,1,11,11,cubehelix_25,629.557,fieldSmooth,0.098716,1.9,1,1.2,1,1,1,63799,518
1583,64084,1,12,12,cubehelix_25,629.557,fieldSmooth,0.098716,1.9,1,1.2,1,1,2,9542,738
1583,64097,3,1,25,cubehelix_05,253.356,fieldSmooth,0.098716,1.9,1,1.2,0,0,1,15789,494
1583,64098,3,2,26,cubehelix_05,253.356,fieldSmooth,0.098716,1.9,1,1.2,1,2,5,12867,600
1583,64099,3,3,27,cubehelix_05,253.356,fieldSmooth,0.098716,1.9,1,1.2,1,2,3,11917,538
1583,64100,3,4,28,cubehelix_05,253.356,fieldSmooth,0.098716,1.9,1,1.2,1,1,1,13356,585
1583,64101,3,5,29,cubehelix_05,253.356,fieldSmooth,0.098716,1.9,1,1.2,1,1,5,44276,579
1583,64102,3,6,30,cubehelix_05,253.356,fieldSmooth,0.098716,1.9,1,1.2,1,2,3,16353,601
1583,64103,3,7,31,cubehelix_05,253.356,fieldSmooth,0.098716,1.9,1,1.2,1,2,2,13432,524
1583,64104,3,8,32,cubehelix_05,253.356,fieldSmooth,0.098716,1.9,1,1.2,1,1,2,20957,521
1583,64105,3,9,33,cubehelix_05,253.356,fieldSmooth,0.098716,1.9,1,1.2,0,0,4,20880,585
1583,64106,3,10,34,cubehelix_05,253.356,fieldSmooth,0.098716,1.9,1,1.2,1,1,4,33526,580
1583,64107,3,11,35,cubehelix_05,253.356,fieldSmooth,0.098716,1.9,1,1.2,1,1,1,16039,499
1583,64108,3,12,36,cubehelix_05,253.356,fieldSmooth,0.098716,1.9,1,1.2,1,1,4,12648,607
1584,63773,3,1,25,cubehelix_15,435.233,fieldSmooth,0.098716,1.9,1,1.2,1,1,5,4815,1049
1584,63774,3,2,26,cubehelix_15,435.233,fieldSmooth,0.098716,1.9,1,1.2,1,1,6,3116,1070
1584,63775,3,3,27,cubehelix_15,435.233,fieldSmooth,0.098716,1.9,1,1.2,1,1,5,3037,876
1584,63776,3,4,28,cubehelix_15,435.233,fieldSmooth,0.098716,1.9,1,1.2,1,2,2,1353,1009
1584,63777,3,5,29,cubehelix_15,435.233,fieldSmooth,0.098716,1.9,1,1.2,0,0,4,14521,1026
1584,63778,3,6,30,cubehelix_15,435.233,fieldSmooth,0.098716,1.9,1,1.2,1,1,1,12449,1041
1584,63779,3,7,31,cubehelix_15,435.233,fieldSmooth,0.098716,1.9,1,1.2,0,0,2,7363,1054
1584,63780,3,8,32,cubehelix_15,435.233,fieldSmooth,0.098716,1.9,1,1.2,0,0,4,6421,998
1584,63781,3,9,33,cubehelix_15,435.233,fieldSmooth,0.098716,1.9,1,1.2,0,0,5,12739,1032
1584,63782,3,10,34,cubehelix_15,435.233,fieldSmooth,0.098716,1.9,1,1.2,1,2,3,8941,843
1584,63783,3,11,35,cubehelix_15,435.233,fieldSmooth,0.098716,1.9,1,1.2,1,1,2,9546,840
1584,63784,3,12,36,cubehelix_15,435.233,fieldSmooth,0.098716,1.9,1,1.2,0,0,6,11542,926
1584,63761,2,1,13,cubehelix_25,629.557,fieldSmooth,0.098716,1.9,1,1.2,0,0,5,5110,1019
1584,63762,2,2,14,cubehelix_25,629.557,fieldSmooth,0.098716,1.9,1,1.2,1,2,1,4614,1044
1584,63763,2,3,15,cubehelix_25,629.557,fieldSmooth,0.098716,1.9,1,1.2,1,2,2,5605,966
1584,63764,2,4,16,cubehelix_25,629.557,fieldSmooth,0.098716,1.9,1,1.2,0,0,1,45767,970
1584,63765,2,5,17,cubehelix_25,629.557,fieldSmooth,0.098716,1.9,1,1.2,0,0,1,5475,998
1584,63766,2,6,18,cubehelix_25,629.557,fieldSmooth,0.098716,1.9,1,1.2,1,2,1,11368,843
1584,63767,2,7,19,cubehelix_25,629.557,fieldSmooth,0.098716,1.9,1,1.2,1,1,4,8312,1035
1584,63768,2,8,20,cubehelix_25,629.557,fieldSmooth,0.098716,1.9,1,1.2,1,1,5,11949,1014
1584,63769,2,9,21,cubehelix_25,629.557,fieldSmooth,0.098716,1.9,1,1.2,0,0,2,17787,1040
1584,63770,2,10,22,cubehelix_25,629.557,fieldSmooth,0.098716,1.9,1,1.2,0,0,1,4351,979
1584,63771,2,11,23,cubehelix_25,629.557,fieldSmooth,0.098716,1.9,1,1.2,0,0,4,9030,900
1584,63772,2,12,24,cubehelix_25,629.557,fieldSmooth,0.098716,1.9,1,1.2,0,0,6,4005,1019
1584,63749,1,1,1,cubehelix_05,253.356,fieldSmooth,0.098716,1.9,1,1.2,1,2,3,92152,936
1584,63750,1,2,2,cubehelix_05,253.356,fieldSmooth,0.098716,1.9,1,1.2,1,2,1,32660,1095
1584,63751,1,3,3,cubehelix_05,253.356,fieldSmooth,0.098716,1.9,1,1.2,1,2,5,11291,1071
1584,63752,1,4,4,cubehelix_05,253.356,fieldSmooth,0.098716,1.9,1,1.2,0,0,1,1957,1044
1584,63753,1,5,5,cubehelix_05,253.356,fieldSmooth,0.098716,1.9,1,1.2,0,0,2,1222,940
1584,63754,1,6,6,cubehelix_05,253.356,fieldSmooth,0.098716,1.9,1,1.2,1,1,4,3594,911
1584,63755,1,7,7,cubehelix_05,253.356,fieldSmooth,0.098716,1.9,1,1.2,0,0,2,1925,989
1584,63756,1,8,8,cubehelix_05,253.356,fieldSmooth,0.098716,1.9,1,1.2,0,0,4,975,890
1584,63757,1,9,9,cubehelix_05,253.356,fieldSmooth,0.098716,1.9,1,1.2,0,0,3,1015,1051
1584,63758,1,10,10,cubehelix_05,253.356,fieldSmooth,0.098716,1.9,1,1.2,1,1,5,1289,1057
1584,63759,1,11,11,cubehelix_05,253.356,fieldSmooth,0.098716,1.9,1,1.2,1,2,6,1133,844
1584,63760,1,12,12,cubehelix_05,253.356,fieldSmooth,0.098716,1.9,1,1.2,0,0,1,987,974
1585,63701,3,1,25,cubehelix_15,435.233,fieldSmooth,0.098716,1.9,1,1.2,0,0,6,2397,834
1585,63702,3,2,26,cubehelix_15,435.233,fieldSmooth,0.098716,1.9,1,1.2,1,1,3,3933,818
1585,63703,3,3,27,cubehelix_15,435.233,fieldSmooth,0.098716,1.9,1,1.2,0,0,5,4894,722
1585,63704,3,4,28,cubehelix_15,435.233,fieldSmooth,0.098716,1.9,1,1.2,0,0,1,6737,748
1585,63705,3,5,29,cubehelix_15,435.233,fieldSmooth,0.098716,1.9,1,1.2,0,0,1,1737,844
1585,63706,3,6,30,cubehelix_15,435.233,fieldSmooth,0.098716,1.9,1,1.2,1,1,1,2729,774
1585,63707,3,7,31,cubehelix_15,435.233,fieldSmooth,0.098716,1.9,1,1.2,1,1,2,3806,679
1585,63708,3,8,32,cubehelix_15,435.233,fieldSmooth,0.098716,1.9,1,1.2,1,2,1,2605,783
1585,63709,3,9,33,cubehelix_15,435.233,fieldSmooth,0.098716,1.9,1,1.2,0,0,1,3840,707
1585,63710,3,10,34,cubehelix_15,435.233,fieldSmooth,0.098716,1.9,1,1.2,0,0,6,5139,786
1585,63711,3,11,35,cubehelix_15,435.233,fieldSmooth,0.098716,1.9,1,1.2,1,2,1,2490,749
1585,63712,3,12,36,cubehelix_15,435.233,fieldSmooth,0.098716,1.9,1,1.2,0,0,3,3586,732
1585,63677,1,1,1,cubehelix_25,629.557,fieldSmooth,0.098716,1.9,1,1.2,0,0,1,1874,1839
1585,63678,1,2,2,cubehelix_25,629.557,fieldSmooth,0.098716,1.9,1,1.2,0,0,6,11408,680
1585,63679,1,3,3,cubehelix_25,629.557,fieldSmooth,0.098716,1.9,1,1.2,1,1,6,5770,725
1585,63680,1,4,4,cubehelix_25,629.557,fieldSmooth,0.098716,1.9,1,1.2,1,1,1,6657,710
1585,63681,1,5,5,cubehelix_25,629.557,fieldSmooth,0.098716,1.9,1,1.2,1,2,1,7217,778
1585,63682,1,6,6,cubehelix_25,629.557,fieldSmooth,0.098716,1.9,1,1.2,0,0,6,4459,814
1585,63683,1,7,7,cubehelix_25,629.557,fieldSmooth,0.098716,1.9,1,1.2,1,2,2,5457,698
1585,63684,1,8,8,cubehelix_25,629.557,fieldSmooth,0.098716,1.9,1,1.2,0,0,1,3859,750
1585,63685,1,9,9,cubehelix_25,629.557,fieldSmooth,0.098716,1.9,1,1.2,1,1,1,1821,975
1585,63686,1,10,10,cubehelix_25,629.557,fieldSmooth,0.098716,1.9,1,1.2,0,0,2,4660,704
1585,63687,1,11,11,cubehelix_25,629.557,fieldSmooth,0.098716,1.9,1,1.2,0,0,5,4202,710
1585,63688,1,12,12,cubehelix_25,629.557,fieldSmooth,0.098716,1.9,1,1.2,0,0,3,3955,766
1585,63689,2,1,13,cubehelix_05,253.356,fieldSmooth,0.098716,1.9,1,1.2,0,0,3,4573,727
1585,63690,2,2,14,cubehelix_05,253.356,fieldSmooth,0.098716,1.9,1,1.2,0,0,3,5123,731
1585,63691,2,3,15,cubehelix_05,253.356,fieldSmooth,0.098716,1.9,1,1.2,0,0,3,4372,735
1585,63692,2,4,16,cubehelix_05,253.356,fieldSmooth,0.098716,1.9,1,1.2,1,2,1,5191,790
1585,63693,2,5,17,cubehelix_05,253.356,fieldSmooth,0.098716,1.9,1,1.2,0,0,3,2854,842
1585,63694,2,6,18,cubehelix_05,253.356,fieldSmooth,0.098716,1.9,1,1.2,0,0,4,4585,819
1585,63695,2,7,19,cubehelix_05,253.356,fieldSmooth,0.098716,1.9,1,1.2,0,0,1,3452,764
1585,63696,2,8,20,cubehelix_05,253.356,fieldSmooth,0.098716,1.9,1,1.2,0,0,1,3154,795
1585,63697,2,9,21,cubehelix_05,253.356,fieldSmooth,0.098716,1.9,1,1.2,1,2,6,4259,775
1585,63698,2,10,22,cubehelix_05,253.356,fieldSmooth,0.098716,1.9,1,1.2,1,2,1,3474,735
1585,63699,2,11,23,cubehelix_05,253.356,fieldSmooth,0.098716,1.9,1,1.2,0,0,1,1492,730
1585,63700,2,12,24,cubehelix_05,253.356,fieldSmooth,0.098716,1.9,1,1.2,0,0,1,1424,791
1586,63845,3,1,25,cubehelix_15,435.233,fieldSmooth,0.098716,1.9,1,1.2,1,1,4,3736,555
1586,63846,3,2,26,cubehelix_15,435.233,fieldSmooth,0.098716,1.9,1,1.2,1,1,2,5644,553
1586,63847,3,3,27,cubehelix_15,435.233,fieldSmooth,0.098716,1.9,1,1.2,1,2,4,8466,550
1586,63848,3,4,28,cubehelix_15,435.233,fieldSmooth,0.098716,1.9,1,1.2,0,0,6,8480,558
1586,63849,3,5,29,cubehelix_15,435.233,fieldSmooth,0.098716,1.9,1,1.2,0,0,2,9767,612
1586,63850,3,6,30,cubehelix_15,435.233,fieldSmooth,0.098716,1.9,1,1.2,1,1,6,3452,583
1586,63851,3,7,31,cubehelix_15,435.233,fieldSmooth,0.098716,1.9,1,1.2,1,1,3,4527,610
1586,63852,3,8,32,cubehelix_15,435.233,fieldSmooth,0.098716,1.9,1,1.2,0,0,6,4580,647
1586,63853,3,9,33,cubehelix_15,435.233,fieldSmooth,0.098716,1.9,1,1.2,1,2,3,5657,641
1586,63854,3,10,34,cubehelix_15,435.233,fieldSmooth,0.098716,1.9,1,1.2,0,0,4,3644,581
1586,63855,3,11,35,cubehelix_15,435.233,fieldSmooth,0.098716,1.9,1,1.2,1,1,6,77208,547
1586,63856,3,12,36,cubehelix_15,435.233,fieldSmooth,0.098716,1.9,1,1.2,1,1,1,7242,651
1586,63833,2,1,13,cubehelix_25,629.557,fieldSmooth,0.098716,1.9,1,1.2,0,0,1,7321,564
1586,63834,2,2,14,cubehelix_25,629.557,fieldSmooth,0.098716,1.9,1,1.2,1,1,6,5047,567
1586,63835,2,3,15,cubehelix_25,629.557,fieldSmooth,0.098716,1.9,1,1.2,0,0,2,2993,654
1586,63836,2,4,16,cubehelix_25,629.557,fieldSmooth,0.098716,1.9,1,1.2,1,1,3,9293,544
1586,63837,2,5,17,cubehelix_25,629.557,fieldSmooth,0.098716,1.9,1,1.2,1,2,1,9523,594
1586,63838,2,6,18,cubehelix_25,629.557,fieldSmooth,0.098716,1.9,1,1.2,0,0,3,6676,589
1586,63839,2,7,19,cubehelix_25,629.557,fieldSmooth,0.098716,1.9,1,1.2,1,1,4,5185,557
1586,63840,2,8,20,cubehelix_25,629.557,fieldSmooth,0.098716,1.9,1,1.2,0,0,3,8637,679
1586,63841,2,9,21,cubehelix_25,629.557,fieldSmooth,0.098716,1.9,1,1.2,1,1,4,10097,580
1586,63842,2,10,22,cubehelix_25,629.557,fieldSmooth,0.098716,1.9,1,1.2,1,2,3,17278,621
1586,63843,2,11,23,cubehelix_25,629.557,fieldSmooth,0.098716,1.9,1,1.2,1,1,5,10994,581
1586,63844,2,12,24,cubehelix_25,629.557,fieldSmooth,0.098716,1.9,1,1.2,1,1,3,5556,561
1586,63821,1,1,1,cubehelix_05,253.356,fieldSmooth,0.098716,1.9,1,1.2,0,0,3,4133,613
1586,63822,1,2,2,cubehelix_05,253.356,fieldSmooth,0.098716,1.9,1,1.2,1,1,6,5557,558
1586,63823,1,3,3,cubehelix_05,253.356,fieldSmooth,0.098716,1.9,1,1.2,1,2,3,8849,537
1586,63824,1,4,4,cubehelix_05,253.356,fieldSmooth,0.098716,1.9,1,1.2,1,1,2,5872,594
1586,63825,1,5,5,cubehelix_05,253.356,fieldSmooth,0.098716,1.9,1,1.2,0,0,1,6753,546
1586,63826,1,6,6,cubehelix_05,253.356,fieldSmooth,0.098716,1.9,1,1.2,0,0,3,4189,556
1586,63827,1,7,7,cubehelix_05,253.356,fieldSmooth,0.098716,1.9,1,1.2,1,1,3,4268,540
1586,63828,1,8,8,cubehelix_05,253.356,fieldSmooth,0.098716,1.9,1,1.2,1,2,5,11141,579
1586,63829,1,9,9,cubehelix_05,253.356,fieldSmooth,0.098716,1.9,1,1.2,1,1,2,4362,574
1586,63830,1,10,10,cubehelix_05,253.356,fieldSmooth,0.098716,1.9,1,1.2,0,0,4,2322,599
1586,63831,1,11,11,cubehelix_05,253.356,fieldSmooth,0.098716,1.9,1,1.2,0,0,3,2360,556
1586,63832,1,12,12,cubehelix_05,253.356,fieldSmooth,0.098716,1.9,1,1.2,0,0,6,5068,557
1588,63929,1,1,1,cubehelix_15,435.233,fieldSmooth,0.098716,1.9,1,1.2,0,0,2,5141,1764
1588,63930,1,2,2,cubehelix_15,435.233,fieldSmooth,0.098716,1.9,1,1.2,1,1,6,2027,749
1588,63931,1,3,3,cubehelix_15,435.233,fieldSmooth,0.098716,1.9,1,1.2,1,2,6,3980,699
1588,63932,1,4,4,cubehelix_15,435.233,fieldSmooth,0.098716,1.9,1,1.2,0,0,6,6148,731
1588,63933,1,5,5,cubehelix_15,435.233,fieldSmooth,0.098716,1.9,1,1.2,1,1,6,2279,814
1588,63934,1,6,6,cubehelix_15,435.233,fieldSmooth,0.098716,1.9,1,1.2,1,1,1,2244,756
1588,63935,1,7,7,cubehelix_15,435.233,fieldSmooth,0.098716,1.9,1,1.2,0,0,1,4630,723
1588,63936,1,8,8,cubehelix_15,435.233,fieldSmooth,0.098716,1.9,1,1.2,0,0,1,7449,798
1588,63937,1,9,9,cubehelix_15,435.233,fieldSmooth,0.098716,1.9,1,1.2,0,0,3,4573,816
1588,63938,1,10,10,cubehelix_15,435.233,fieldSmooth,0.098716,1.9,1,1.2,1,2,1,3611,812
1588,63939,1,11,11,cubehelix_15,435.233,fieldSmooth,0.098716,1.9,1,1.2,0,0,1,5523,877
1588,63940,1,12,12,cubehelix_15,435.233,fieldSmooth,0.098716,1.9,1,1.2,1,1,6,4091,854
1588,63953,3,1,25,cubehelix_25,629.557,fieldSmooth,0.098716,1.9,1,1.2,1,1,2,5312,860
1588,63954,3,2,26,cubehelix_25,629.557,fieldSmooth,0.098716,1.9,1,1.2,0,0,6,6048,904
1588,63955,3,3,27,cubehelix_25,629.557,fieldSmooth,0.098716,1.9,1,1.2,1,1,6,9249,841
1588,63956,3,4,28,cubehelix_25,629.557,fieldSmooth,0.098716,1.9,1,1.2,1,1,2,3198,766
1588,63957,3,5,29,cubehelix_25,629.557,fieldSmooth,0.098716,1.9,1,1.2,1,1,6,3447,834
1588,63958,3,6,30,cubehelix_25,629.557,fieldSmooth,0.098716,1.9,1,1.2,1,1,1,4883,826
1588,63959,3,7,31,cubehelix_25,629.557,fieldSmooth,0.098716,1.9,1,1.2,0,0,2,3640,789
1588,63960,3,8,32,cubehelix_25,629.557,fieldSmooth,0.098716,1.9,1,1.2,1,1,5,3457,876
1588,63961,3,9,33,cubehelix_25,629.557,fieldSmooth,0.098716,1.9,1,1.2,1,1,3,3359,826
1588,63962,3,10,34,cubehelix_25,629.557,fieldSmooth,0.098716,1.9,1,1.2,0,0,5,4209,776
1588,63963,3,11,35,cubehelix_25,629.557,fieldSmooth,0.098716,1.9,1,1.2,0,0,3,2433,776
1588,63964,3,12,36,cubehelix_25,629.557,fieldSmooth,0.098716,1.9,1,1.2,0,0,6,2183,818
1588,63941,2,1,13,cubehelix_05,253.356,fieldSmooth,0.098716,1.9,1,1.2,1,1,3,5550,819
1588,63942,2,2,14,cubehelix_05,253.356,fieldSmooth,0.098716,1.9,1,1.2,1,1,1,5192,846
1588,63943,2,3,15,cubehelix_05,253.356,fieldSmooth,0.098716,1.9,1,1.2,1,2,3,7368,875
1588,63944,2,4,16,cubehelix_05,253.356,fieldSmooth,0.098716,1.9,1,1.2,1,1,3,9048,776
1588,63945,2,5,17,cubehelix_05,253.356,fieldSmooth,0.098716,1.9,1,1.2,1,1,3,4420,868
1588,63946,2,6,18,cubehelix_05,253.356,fieldSmooth,0.098716,1.9,1,1.2,0,0,1,4142,843
1588,63947,2,7,19,cubehelix_05,253.356,fieldSmooth,0.098716,1.9,1,1.2,0,0,1,8493,851
1588,63948,2,8,20,cubehelix_05,253.356,fieldSmooth,0.098716,1.9,1,1.2,0,0,1,4087,760
1588,63949,2,9,21,cubehelix_05,253.356,fieldSmooth,0.098716,1.9,1,1.2,0,0,1,6035,784
1588,63950,2,10,22,cubehelix_05,253.356,fieldSmooth,0.098716,1.9,1,1.2,0,0,1,6451,817
1588,63951,2,11,23,cubehelix_05,253.356,fieldSmooth,0.098716,1.9,1,1.2,1,2,1,6149,788
1588,63952,2,12,24,cubehelix_05,253.356,fieldSmooth,0.098716,1.9,1,1.2,0,0,1,4314,741
1591,64409,2,1,13,cubehelix_15,435.233,fieldSmooth,0.098716,1.9,1,1.2,1,1,6,18593,656
1591,64410,2,2,14,cubehelix_15,435.233,fieldSmooth,0.098716,1.9,1,1.2,1,1,5,5438,734
1591,64411,2,3,15,cubehelix_15,435.233,fieldSmooth,0.098716,1.9,1,1.2,0,0,4,6138,683
1591,64412,2,4,16,cubehelix_15,435.233,fieldSmooth,0.098716,1.9,1,1.2,0,0,3,3909,701
1591,64413,2,5,17,cubehelix_15,435.233,fieldSmooth,0.098716,1.9,1,1.2,1,2,3,6490,693
1591,64414,2,6,18,cubehelix_15,435.233,fieldSmooth,0.098716,1.9,1,1.2,0,0,1,4891,702
1591,64415,2,7,19,cubehelix_15,435.233,fieldSmooth,0.098716,1.9,1,1.2,0,0,3,2439,655
1591,64416,2,8,20,cubehelix_15,435.233,fieldSmooth,0.098716,1.9,1,1.2,1,1,6,5405,724
1591,64417,2,9,21,cubehelix_15,435.233,fieldSmooth,0.098716,1.9,1,1.2,0,0,3,2838,697
1591,64418,2,10,22,cubehelix_15,435.233,fieldSmooth,0.098716,1.9,1,1.2,0,0,1,4776,904
1591,64419,2,11,23,cubehelix_15,435.233,fieldSmooth,0.098716,1.9,1,1.2,0,0,6,4545,669
1591,64420,2,12,24,cubehelix_15,435.233,fieldSmooth,0.098716,1.9,1,1.2,1,1,4,3229,782
1591,64421,3,1,25,cubehelix_25,629.557,fieldSmooth,0.098716,1.9,1,1.2,1,1,5,3220,685
1591,64422,3,2,26,cubehelix_25,629.557,fieldSmooth,0.098716,1.9,1,1.2,1,1,3,11129,711
1591,64423,3,3,27,cubehelix_25,629.557,fieldSmooth,0.098716,1.9,1,1.2,1,1,5,4323,679
1591,64424,3,4,28,cubehelix_25,629.557,fieldSmooth,0.098716,1.9,1,1.2,1,1,3,5483,653
1591,64425,3,5,29,cubehelix_25,629.557,fieldSmooth,0.098716,1.9,1,1.2,1,1,1,13847,688
1591,64426,3,6,30,cubehelix_25,629.557,fieldSmooth,0.098716,1.9,1,1.2,1,1,4,7278,708
1591,64427,3,7,31,cubehelix_25,629.557,fieldSmooth,0.098716,1.9,1,1.2,1,2,6,14763,697
1591,64428,3,8,32,cubehelix_25,629.557,fieldSmooth,0.098716,1.9,1,1.2,0,0,6,8503,647
1591,64429,3,9,33,cubehelix_25,629.557,fieldSmooth,0.098716,1.9,1,1.2,1,2,1,6980,705
1591,64430,3,10,34,cubehelix_25,629.557,fieldSmooth,0.098716,1.9,1,1.2,1,1,3,7975,698
1591,64431,3,11,35,cubehelix_25,629.557,fieldSmooth,0.098716,1.9,1,1.2,0,0,4,8574,649
1591,64432,3,12,36,cubehelix_25,629.557,fieldSmooth,0.098716,1.9,1,1.2,0,0,1,15936,762
1591,64397,1,1,1,cubehelix_05,253.356,fieldSmooth,0.098716,1.9,1,1.2,1,1,6,7258,2169
1591,64398,1,2,2,cubehelix_05,253.356,fieldSmooth,0.098716,1.9,1,1.2,1,1,4,12936,742
1591,64399,1,3,3,cubehelix_05,253.356,fieldSmooth,0.098716,1.9,1,1.2,0,0,3,14490,690
1591,64400,1,4,4,cubehelix_05,253.356,fieldSmooth,0.098716,1.9,1,1.2,1,1,6,12812,659
1591,64401,1,5,5,cubehelix_05,253.356,fieldSmooth,0.098716,1.9,1,1.2,1,1,3,17017,727
1591,64402,1,6,6,cubehelix_05,253.356,fieldSmooth,0.098716,1.9,1,1.2,0,0,1,9321,722
1591,64403,1,7,7,cubehelix_05,253.356,fieldSmooth,0.098716,1.9,1,1.2,1,1,6,17644,720
1591,64404,1,8,8,cubehelix_05,253.356,fieldSmooth,0.098716,1.9,1,1.2,1,1,6,5891,712
1591,64405,1,9,9,cubehelix_05,253.356,fieldSmooth,0.098716,1.9,1,1.2,1,1,1,22424,726
1591,64406,1,10,10,cubehelix_05,253.356,fieldSmooth,0.098716,1.9,1,1.2,1,2,4,11501,736
1591,64407,1,11,11,cubehelix_05,253.356,fieldSmooth,0.098716,1.9,1,1.2,0,0,6,2836,748
1591,64408,1,12,12,cubehelix_05,253.356,fieldSmooth,0.098716,1.9,1,1.2,1,1,1,10927,667
1594,64037,1,1,1,cubehelix_15,435.233,fieldSmooth,0.098716,1.9,1,1.2,1,1,6,17170,1606
1594,64038,1,2,2,cubehelix_15,435.233,fieldSmooth,0.098716,1.9,1,1.2,1,1,2,13756,790
1594,64039,1,3,3,cubehelix_15,435.233,fieldSmooth,0.098716,1.9,1,1.2,1,1,2,7613,715
1594,64040,1,4,4,cubehelix_15,435.233,fieldSmooth,0.098716,1.9,1,1.2,1,1,2,6891,652
1594,64041,1,5,5,cubehelix_15,435.233,fieldSmooth,0.098716,1.9,1,1.2,1,2,4,38286,807
1594,64042,1,6,6,cubehelix_15,435.233,fieldSmooth,0.098716,1.9,1,1.2,1,2,5,12072,651
1594,64043,1,7,7,cubehelix_15,435.233,fieldSmooth,0.098716,1.9,1,1.2,1,1,6,7722,717
1594,64044,1,8,8,cubehelix_15,435.233,fieldSmooth,0.098716,1.9,1,1.2,1,1,5,8606,655
1594,64045,1,9,9,cubehelix_15,435.233,fieldSmooth,0.098716,1.9,1,1.2,1,1,3,4369,813
1594,64046,1,10,10,cubehelix_15,435.233,fieldSmooth,0.098716,1.9,1,1.2,0,0,5,16050,622
1594,64047,1,11,11,cubehelix_15,435.233,fieldSmooth,0.098716,1.9,1,1.2,1,1,5,5505,760
1594,64048,1,12,12,cubehelix_15,435.233,fieldSmooth,0.098716,1.9,1,1.2,1,1,5,5137,728
1594,64061,3,1,25,cubehelix_25,629.557,fieldSmooth,0.098716,1.9,1,1.2,1,1,1,4586,664
1594,64062,3,2,26,cubehelix_25,629.557,fieldSmooth,0.098716,1.9,1,1.2,1,1,1,24038,653
1594,64063,3,3,27,cubehelix_25,629.557,fieldSmooth,0.098716,1.9,1,1.2,1,1,6,3082,717
1594,64064,3,4,28,cubehelix_25,629.557,fieldSmooth,0.098716,1.9,1,1.2,1,1,5,7655,673
1594,64065,3,5,29,cubehelix_25,629.557,fieldSmooth,0.098716,1.9,1,1.2,1,1,4,5240,718
1594,64066,3,6,30,cubehelix_25,629.557,fieldSmooth,0.098716,1.9,1,1.2,1,1,5,6218,831
1594,64067,3,7,31,cubehelix_25,629.557,fieldSmooth,0.098716,1.9,1,1.2,1,1,6,6215,680
1594,64068,3,8,32,cubehelix_25,629.557,fieldSmooth,0.098716,1.9,1,1.2,1,1,2,5999,635
1594,64069,3,9,33,cubehelix_25,629.557,fieldSmooth,0.098716,1.9,1,1.2,1,1,1,14729,836
1594,64070,3,10,34,cubehelix_25,629.557,fieldSmooth,0.098716,1.9,1,1.2,1,1,2,6866,679
1594,64071,3,11,35,cubehelix_25,629.557,fieldSmooth,0.098716,1.9,1,1.2,1,1,2,14409,716
1594,64072,3,12,36,cubehelix_25,629.557,fieldSmooth,0.098716,1.9,1,1.2,1,1,1,5829,796
1594,64049,2,1,13,cubehelix_05,253.356,fieldSmooth,0.098716,1.9,1,1.2,1,2,1,16358,756
1594,64050,2,2,14,cubehelix_05,253.356,fieldSmooth,0.098716,1.9,1,1.2,1,1,3,20955,723
1594,64051,2,3,15,cubehelix_05,253.356,fieldSmooth,0.098716,1.9,1,1.2,1,2,1,39186,619
1594,64052,2,4,16,cubehelix_05,253.356,fieldSmooth,0.098716,1.9,1,1.2,1,1,3,19868,629
1594,64053,2,5,17,cubehelix_05,253.356,fieldSmooth,0.098716,1.9,1,1.2,1,1,1,18503,672
1594,64054,2,6,18,cubehelix_05,253.356,fieldSmooth,0.098716,1.9,1,1.2,1,1,6,6862,644
1594,64055,2,7,19,cubehelix_05,253.356,fieldSmooth,0.098716,1.9,1,1.2,0,0,4,11113,626
1594,64056,2,8,20,cubehelix_05,253.356,fieldSmooth,0.098716,1.9,1,1.2,1,1,4,11742,698
1594,64057,2,9,21,cubehelix_05,253.356,fieldSmooth,0.098716,1.9,1,1.2,1,2,5,7202,688
1594,64058,2,10,22,cubehelix_05,253.356,fieldSmooth,0.098716,1.9,1,1.2,1,2,3,9777,672
1594,64059,2,11,23,cubehelix_05,253.356,fieldSmooth,0.098716,1.9,1,1.2,1,2,1,6244,693
1594,64060,2,12,24,cubehelix_05,253.356,fieldSmooth,0.098716,1.9,1,1.2,1,2,1,4238,870
1595,64277,3,1,25,cubehelix_15,435.233,fieldSmooth,0.098716,1.9,1,1.2,0,0,1,10955,1565
1595,64278,3,2,26,cubehelix_15,435.233,fieldSmooth,0.098716,1.9,1,1.2,0,0,2,11337,1392
1595,64279,3,3,27,cubehelix_15,435.233,fieldSmooth,0.098716,1.9,1,1.2,0,0,4,19475,1499
1595,64280,3,4,28,cubehelix_15,435.233,fieldSmooth,0.098716,1.9,1,1.2,1,2,4,7337,1424
1595,64281,3,5,29,cubehelix_15,435.233,fieldSmooth,0.098716,1.9,1,1.2,1,2,5,11966,1543
1595,64282,3,6,30,cubehelix_15,435.233,fieldSmooth,0.098716,1.9,1,1.2,1,2,6,22709,1410
1595,64283,3,7,31,cubehelix_15,435.233,fieldSmooth,0.098716,1.9,1,1.2,1,2,6,10593,1302
1595,64284,3,8,32,cubehelix_15,435.233,fieldSmooth,0.098716,1.9,1,1.2,1,1,5,17102,1281
1595,64285,3,9,33,cubehelix_15,435.233,fieldSmooth,0.098716,1.9,1,1.2,1,1,3,6172,1440
1595,64286,3,10,34,cubehelix_15,435.233,fieldSmooth,0.098716,1.9,1,1.2,1,2,6,9536,1248
1595,64287,3,11,35,cubehelix_15,435.233,fieldSmooth,0.098716,1.9,1,1.2,0,0,3,17460,1504
1595,64288,3,12,36,cubehelix_15,435.233,fieldSmooth,0.098716,1.9,1,1.2,1,2,2,5514,1626
1595,64253,1,1,1,cubehelix_25,629.557,fieldSmooth,0.098716,1.9,1,1.2,1,1,1,7383,2756
1595,64254,1,2,2,cubehelix_25,629.557,fieldSmooth,0.098716,1.9,1,1.2,1,1,5,8948,1256
1595,64255,1,3,3,cubehelix_25,629.557,fieldSmooth,0.098716,1.9,1,1.2,1,1,1,24151,1240
1595,64256,1,4,4,cubehelix_25,629.557,fieldSmooth,0.098716,1.9,1,1.2,1,1,4,13681,1340
1595,64257,1,5,5,cubehelix_25,629.557,fieldSmooth,0.098716,1.9,1,1.2,1,1,5,19169,1534
1595,64258,1,6,6,cubehelix_25,629.557,fieldSmooth,0.098716,1.9,1,1.2,1,1,1,23124,1772
1595,64259,1,7,7,cubehelix_25,629.557,fieldSmooth,0.098716,1.9,1,1.2,1,1,5,23113,1501
1595,64260,1,8,8,cubehelix_25,629.557,fieldSmooth,0.098716,1.9,1,1.2,1,1,3,7893,1301
1595,64261,1,9,9,cubehelix_25,629.557,fieldSmooth,0.098716,1.9,1,1.2,1,2,5,7700,1203
1595,64262,1,10,10,cubehelix_25,629.557,fieldSmooth,0.098716,1.9,1,1.2,1,1,1,29998,1282
1595,64263,1,11,11,cubehelix_25,629.557,fieldSmooth,0.098716,1.9,1,1.2,0,0,1,40351,1566
1595,64264,1,12,12,cubehelix_25,629.557,fieldSmooth,0.098716,1.9,1,1.2,0,0,1,34957,1343
1595,64265,2,1,13,cubehelix_05,253.356,fieldSmooth,0.098716,1.9,1,1.2,1,2,2,13378,1701
1595,64266,2,2,14,cubehelix_05,253.356,fieldSmooth,0.098716,1.9,1,1.2,1,1,6,9319,1259
1595,64267,2,3,15,cubehelix_05,253.356,fieldSmooth,0.098716,1.9,1,1.2,0,0,5,20988,1362
1595,64268,2,4,16,cubehelix_05,253.356,fieldSmooth,0.098716,1.9,1,1.2,1,2,1,5290,1598
1595,64269,2,5,17,cubehelix_05,253.356,fieldSmooth,0.098716,1.9,1,1.2,0,0,1,5021,1248
1595,64270,2,6,18,cubehelix_05,253.356,fieldSmooth,0.098716,1.9,1,1.2,1,2,3,11175,1419
1595,64271,2,7,19,cubehelix_05,253.356,fieldSmooth,0.098716,1.9,1,1.2,1,2,1,10531,1364
1595,64272,2,8,20,cubehelix_05,253.356,fieldSmooth,0.098716,1.9,1,1.2,1,1,3,13696,1513
1595,64273,2,9,21,cubehelix_05,253.356,fieldSmooth,0.098716,1.9,1,1.2,1,1,5,9111,1257
1595,64274,2,10,22,cubehelix_05,253.356,fieldSmooth,0.098716,1.9,1,1.2,1,1,4,15694,1527
1595,64275,2,11,23,cubehelix_05,253.356,fieldSmooth,0.098716,1.9,1,1.2,0,0,3,15755,1221
1595,64276,2,12,24,cubehelix_05,253.356,fieldSmooth,0.098716,1.9,1,1.2,1,2,5,15309,1455
1596,64517,2,1,13,cubehelix_15,435.233,fieldSmooth,0.098716,1.9,1,1.2,1,1,1,48767,1181
1596,64518,2,2,14,cubehelix_15,435.233,fieldSmooth,0.098716,1.9,1,1.2,1,1,3,81835,1072
1596,64519,2,3,15,cubehelix_15,435.233,fieldSmooth,0.098716,1.9,1,1.2,1,1,4,19186,1177
1596,64520,2,4,16,cubehelix_15,435.233,fieldSmooth,0.098716,1.9,1,1.2,1,1,6,22097,1264
1596,64521,2,5,17,cubehelix_15,435.233,fieldSmooth,0.098716,1.9,1,1.2,1,1,4,4211,1164
1596,64522,2,6,18,cubehelix_15,435.233,fieldSmooth,0.098716,1.9,1,1.2,0,0,4,4034,1162
1596,64523,2,7,19,cubehelix_15,435.233,fieldSmooth,0.098716,1.9,1,1.2,0,0,4,9991,1468
1596,64524,2,8,20,cubehelix_15,435.233,fieldSmooth,0.098716,1.9,1,1.2,1,2,4,10434,1178
1596,64525,2,9,21,cubehelix_15,435.233,fieldSmooth,0.098716,1.9,1,1.2,1,1,6,7753,1103
1596,64526,2,10,22,cubehelix_15,435.233,fieldSmooth,0.098716,1.9,1,1.2,1,1,2,6990,1079
1596,64527,2,11,23,cubehelix_15,435.233,fieldSmooth,0.098716,1.9,1,1.2,1,1,2,10573,1123
1596,64528,2,12,24,cubehelix_15,435.233,fieldSmooth,0.098716,1.9,1,1.2,1,1,5,10941,1231
1596,64529,3,1,25,cubehelix_25,629.557,fieldSmooth,0.098716,1.9,1,1.2,1,2,3,13697,1084
1596,64530,3,2,26,cubehelix_25,629.557,fieldSmooth,0.098716,1.9,1,1.2,0,0,1,9241,1206
1596,64531,3,3,27,cubehelix_25,629.557,fieldSmooth,0.098716,1.9,1,1.2,0,0,3,13782,1140
1596,64532,3,4,28,cubehelix_25,629.557,fieldSmooth,0.098716,1.9,1,1.2,1,1,5,4747,1224
1596,64533,3,5,29,cubehelix_25,629.557,fieldSmooth,0.098716,1.9,1,1.2,1,1,5,3168,1203
1596,64534,3,6,30,cubehelix_25,629.557,fieldSmooth,0.098716,1.9,1,1.2,1,2,5,8085,1097
1596,64535,3,7,31,cubehelix_25,629.557,fieldSmooth,0.098716,1.9,1,1.2,1,1,4,5515,1281
1596,64536,3,8,32,cubehelix_25,629.557,fieldSmooth,0.098716,1.9,1,1.2,1,1,2,9324,1042
1596,64537,3,9,33,cubehelix_25,629.557,fieldSmooth,0.098716,1.9,1,1.2,1,1,1,10685,1107
1596,64538,3,10,34,cubehelix_25,629.557,fieldSmooth,0.098716,1.9,1,1.2,0,0,5,6607,1119
1596,64539,3,11,35,cubehelix_25,629.557,fieldSmooth,0.098716,1.9,1,1.2,0,0,6,9238,1072
1596,64540,3,12,36,cubehelix_25,629.557,fieldSmooth,0.098716,1.9,1,1.2,1,1,1,12097,1089
1596,64505,1,1,1,cubehelix_05,253.356,fieldSmooth,0.098716,1.9,1,1.2,1,2,2,8910,3629
1596,64506,1,2,2,cubehelix_05,253.356,fieldSmooth,0.098716,1.9,1,1.2,1,1,1,66447,1566
1596,64507,1,3,3,cubehelix_05,253.356,fieldSmooth,0.098716,1.9,1,1.2,1,1,3,6421,1194
1596,64508,1,4,4,cubehelix_05,253.356,fieldSmooth,0.098716,1.9,1,1.2,1,2,1,5576,1094
1596,64509,1,5,5,cubehelix_05,253.356,fieldSmooth,0.098716,1.9,1,1.2,0,0,4,4734,1334
1596,64510,1,6,6,cubehelix_05,253.356,fieldSmooth,0.098716,1.9,1,1.2,1,1,4,6789,1143
1596,64511,1,7,7,cubehelix_05,253.356,fieldSmooth,0.098716,1.9,1,1.2,1,1,4,5770,1132
1596,64512,1,8,8,cubehelix_05,253.356,fieldSmooth,0.098716,1.9,1,1.2,1,2,6,13552,1159
1596,64513,1,9,9,cubehelix_05,253.356,fieldSmooth,0.098716,1.9,1,1.2,0,0,4,22098,1112
1596,64514,1,10,10,cubehelix_05,253.356,fieldSmooth,0.098716,1.9,1,1.2,0,0,4,7271,1186
1596,64515,1,11,11,cubehelix_05,253.356,fieldSmooth,0.098716,1.9,1,1.2,0,0,4,4814,1158
1596,64516,1,12,12,cubehelix_05,253.356,fieldSmooth,0.098716,1.9,1,1.2,1,2,5,22716,1147
1600,64313,3,1,25,cubehelix_15,435.233,fieldSmooth,0.098716,1.9,1,1.2,1,2,4,7857,263
1600,64314,3,2,26,cubehelix_15,435.233,fieldSmooth,0.098716,1.9,1,1.2,0,0,3,4912,323
1600,64315,3,3,27,cubehelix_15,435.233,fieldSmooth,0.098716,1.9,1,1.2,1,1,5,3986,278
1600,64316,3,4,28,cubehelix_15,435.233,fieldSmooth,0.098716,1.9,1,1.2,1,1,3,3695,263
1600,64317,3,5,29,cubehelix_15,435.233,fieldSmooth,0.098716,1.9,1,1.2,0,0,6,10290,313
1600,64318,3,6,30,cubehelix_15,435.233,fieldSmooth,0.098716,1.9,1,1.2,1,1,1,10858,272
1600,64319,3,7,31,cubehelix_15,435.233,fieldSmooth,0.098716,1.9,1,1.2,1,1,1,8942,256
1600,64320,3,8,32,cubehelix_15,435.233,fieldSmooth,0.098716,1.9,1,1.2,0,0,2,12857,239
1600,64321,3,9,33,cubehelix_15,435.233,fieldSmooth,0.098716,1.9,1,1.2,1,1,4,3167,283
1600,64322,3,10,34,cubehelix_15,435.233,fieldSmooth,0.098716,1.9,1,1.2,1,1,3,6416,235
1600,64323,3,11,35,cubehelix_15,435.233,fieldSmooth,0.098716,1.9,1,1.2,1,1,5,5139,259
1600,64324,3,12,36,cubehelix_15,435.233,fieldSmooth,0.098716,1.9,1,1.2,0,0,4,9680,233
1600,64289,1,1,1,cubehelix_25,629.557,fieldSmooth,0.098716,1.9,1,1.2,1,1,2,4804,272
1600,64290,1,2,2,cubehelix_25,629.557,fieldSmooth,0.098716,1.9,1,1.2,0,0,6,7338,350
1600,64291,1,3,3,cubehelix_25,629.557,fieldSmooth,0.098716,1.9,1,1.2,0,0,1,18716,236
1600,64292,1,4,4,cubehelix_25,629.557,fieldSmooth,0.098716,1.9,1,1.2,1,2,1,6486,258
1600,64293,1,5,5,cubehelix_25,629.557,fieldSmooth,0.098716,1.9,1,1.2,1,1,1,9530,257
1600,64294,1,6,6,cubehelix_25,629.557,fieldSmooth,0.098716,1.9,1,1.2,1,2,6,13755,339
1600,64295,1,7,7,cubehelix_25,629.557,fieldSmooth,0.098716,1.9,1,1.2,1,1,2,9953,272
1600,64296,1,8,8,cubehelix_25,629.557,fieldSmooth,0.098716,1.9,1,1.2,1,1,5,9485,267
1600,64297,1,9,9,cubehelix_25,629.557,fieldSmooth,0.098716,1.9,1,1.2,1,1,3,5777,260
1600,64298,1,10,10,cubehelix_25,629.557,fieldSmooth,0.098716,1.9,1,1.2,1,1,1,27828,323
1600,64299,1,11,11,cubehelix_25,629.557,fieldSmooth,0.098716,1.9,1,1.2,0,0,3,7508,314
1600,64300,1,12,12,cubehelix_25,629.557,fieldSmooth,0.098716,1.9,1,1.2,0,0,2,14053,256
1600,64301,2,1,13,cubehelix_05,253.356,fieldSmooth,0.098716,1.9,1,1.2,1,2,1,10054,283
1600,64302,2,2,14,cubehelix_05,253.356,fieldSmooth,0.098716,1.9,1,1.2,0,0,5,24087,260
1600,64303,2,3,15,cubehelix_05,253.356,fieldSmooth,0.098716,1.9,1,1.2,0,0,3,9451,289
1600,64304,2,4,16,cubehelix_05,253.356,fieldSmooth,0.098716,1.9,1,1.2,1,1,6,15801,312
1600,64305,2,5,17,cubehelix_05,253.356,fieldSmooth,0.098716,1.9,1,1.2,1,1,4,4589,361
1600,64306,2,6,18,cubehelix_05,253.356,fieldSmooth,0.098716,1.9,1,1.2,1,2,5,18057,276
1600,64307,2,7,19,cubehelix_05,253.356,fieldSmooth,0.098716,1.9,1,1.2,1,1,2,14259,360
1600,64308,2,8,20,cubehelix_05,253.356,fieldSmooth,0.098716,1.9,1,1.2,0,0,5,8784,283
1600,64309,2,9,21,cubehelix_05,253.356,fieldSmooth,0.098716,1.9,1,1.2,1,1,3,3843,299
1600,64310,2,10,22,cubehelix_05,253.356,fieldSmooth,0.098716,1.9,1,1.2,1,1,4,5076,255
1600,64311,2,11,23,cubehelix_05,253.356,fieldSmooth,0.098716,1.9,1,1.2,0,0,4,19490,262
1600,64312,2,12,24,cubehelix_05,253.356,fieldSmooth,0.098716,1.9,1,1.2,0,0,1,11273,380
1601,64469,1,1,1,cubehelix_15,435.233,fieldSmooth,0.098716,1.9,1,1.2,1,2,4,21290,2405
1601,64470,1,2,2,cubehelix_15,435.233,fieldSmooth,0.098716,1.9,1,1.2,1,1,6,7842,1124
1601,64471,1,3,3,cubehelix_15,435.233,fieldSmooth,0.098716,1.9,1,1.2,0,0,6,21570,933
1601,64472,1,4,4,cubehelix_15,435.233,fieldSmooth,0.098716,1.9,1,1.2,1,1,3,41185,1027
1601,64473,1,5,5,cubehelix_15,435.233,fieldSmooth,0.098716,1.9,1,1.2,0,0,4,45881,969
1601,64474,1,6,6,cubehelix_15,435.233,fieldSmooth,0.098716,1.9,1,1.2,1,1,4,49205,841
1601,64475,1,7,7,cubehelix_15,435.233,fieldSmooth,0.098716,1.9,1,1.2,0,0,4,12641,1029
1601,64476,1,8,8,cubehelix_15,435.233,fieldSmooth,0.098716,1.9,1,1.2,1,1,1,17360,936
1601,64477,1,9,9,cubehelix_15,435.233,fieldSmooth,0.098716,1.9,1,1.2,1,1,3,12463,803
1601,64478,1,10,10,cubehelix_15,435.233,fieldSmooth,0.098716,1.9,1,1.2,0,0,3,15971,1035
1601,64479,1,11,11,cubehelix_15,435.233,fieldSmooth,0.098716,1.9,1,1.2,0,0,6,18133,916
1601,64480,1,12,12,cubehelix_15,435.233,fieldSmooth,0.098716,1.9,1,1.2,0,0,4,19771,1036
1601,64481,2,1,13,cubehelix_25,629.557,fieldSmooth,0.098716,1.9,1,1.2,1,1,3,10503,968
1601,64482,2,2,14,cubehelix_25,629.557,fieldSmooth,0.098716,1.9,1,1.2,1,1,1,17333,893
1601,64483,2,3,15,cubehelix_25,629.557,fieldSmooth,0.098716,1.9,1,1.2,1,1,4,13898,944
1601,64484,2,4,16,cubehelix_25,629.557,fieldSmooth,0.098716,1.9,1,1.2,1,2,5,4530,976
1601,64485,2,5,17,cubehelix_25,629.557,fieldSmooth,0.098716,1.9,1,1.2,0,0,3,12604,872
1601,64486,2,6,18,cubehelix_25,629.557,fieldSmooth,0.098716,1.9,1,1.2,1,2,4,21669,961
1601,64487,2,7,19,cubehelix_25,629.557,fieldSmooth,0.098716,1.9,1,1.2,1,1,4,16667,1116
1601,64488,2,8,20,cubehelix_25,629.557,fieldSmooth,0.098716,1.9,1,1.2,1,1,2,8629,1194
1601,64489,2,9,21,cubehelix_25,629.557,fieldSmooth,0.098716,1.9,1,1.2,1,1,3,4446,821
1601,64490,2,10,22,cubehelix_25,629.557,fieldSmooth,0.098716,1.9,1,1.2,1,1,1,7093,1062
1601,64491,2,11,23,cubehelix_25,629.557,fieldSmooth,0.098716,1.9,1,1.2,1,2,5,8697,878
1601,64492,2,12,24,cubehelix_25,629.557,fieldSmooth,0.098716,1.9,1,1.2,1,1,6,5686,971
1601,64493,3,1,25,cubehelix_05,253.356,fieldSmooth,0.098716,1.9,1,1.2,1,2,4,5607,1055
1601,64494,3,2,26,cubehelix_05,253.356,fieldSmooth,0.098716,1.9,1,1.2,1,1,1,17005,944
1601,64495,3,3,27,cubehelix_05,253.356,fieldSmooth,0.098716,1.9,1,1.2,1,2,5,6524,859
1601,64496,3,4,28,cubehelix_05,253.356,fieldSmooth,0.098716,1.9,1,1.2,1,2,1,15638,841
1601,64497,3,5,29,cubehelix_05,253.356,fieldSmooth,0.098716,1.9,1,1.2,1,1,1,24093,1624
1601,64498,3,6,30,cubehelix_05,253.356,fieldSmooth,0.098716,1.9,1,1.2,1,2,1,9312,961
1601,64499,3,7,31,cubehelix_05,253.356,fieldSmooth,0.098716,1.9,1,1.2,1,1,4,6801,1152
1601,64500,3,8,32,cubehelix_05,253.356,fieldSmooth,0.098716,1.9,1,1.2,0,0,4,8453,877
1601,64501,3,9,33,cubehelix_05,253.356,fieldSmooth,0.098716,1.9,1,1.2,0,0,1,72383,1201
1601,64502,3,10,34,cubehelix_05,253.356,fieldSmooth,0.098716,1.9,1,1.2,0,0,1,24354,1023
1601,64503,3,11,35,cubehelix_05,253.356,fieldSmooth,0.098716,1.9,1,1.2,1,1,5,11416,1144
1601,64504,3,12,36,cubehelix_05,253.356,fieldSmooth,0.098716,1.9,1,1.2,1,1,3,24838,819
1602,64637,3,1,25,cubehelix_15,435.233,fieldSmooth,0.098716,1.9,1,1.2,1,1,3,10894,527
1602,64638,3,2,26,cubehelix_15,435.233,fieldSmooth,0.098716,1.9,1,1.2,1,1,2,6975,521
1602,64639,3,3,27,cubehelix_15,435.233,fieldSmooth,0.098716,1.9,1,1.2,1,2,5,37583,542
1602,64640,3,4,28,cubehelix_15,435.233,fieldSmooth,0.098716,1.9,1,1.2,1,2,5,66379,531
1602,64641,3,5,29,cubehelix_15,435.233,fieldSmooth,0.098716,1.9,1,1.2,1,1,2,72777,505
1602,64642,3,6,30,cubehelix_15,435.233,fieldSmooth,0.098716,1.9,1,1.2,1,2,3,15618,544
1602,64643,3,7,31,cubehelix_15,435.233,fieldSmooth,0.098716,1.9,1,1.2,1,2,6,8187,504
1602,64644,3,8,32,cubehelix_15,435.233,fieldSmooth,0.098716,1.9,1,1.2,1,1,6,26205,500
1602,64645,3,9,33,cubehelix_15,435.233,fieldSmooth,0.098716,1.9,1,1.2,1,1,3,14348,503
1602,64646,3,10,34,cubehelix_15,435.233,fieldSmooth,0.098716,1.9,1,1.2,1,1,2,20441,522
1602,64647,3,11,35,cubehelix_15,435.233,fieldSmooth,0.098716,1.9,1,1.2,1,1,2,16623,531
1602,64648,3,12,36,cubehelix_15,435.233,fieldSmooth,0.098716,1.9,1,1.2,1,1,2,46798,517
1602,64625,2,1,13,cubehelix_25,629.557,fieldSmooth,0.098716,1.9,1,1.2,1,1,2,11388,589
1602,64626,2,2,14,cubehelix_25,629.557,fieldSmooth,0.098716,1.9,1,1.2,1,1,2,4759,564
1602,64627,2,3,15,cubehelix_25,629.557,fieldSmooth,0.098716,1.9,1,1.2,1,1,6,27991,548
1602,64628,2,4,16,cubehelix_25,629.557,fieldSmooth,0.098716,1.9,1,1.2,1,1,6,23912,507
1602,64629,2,5,17,cubehelix_25,629.557,fieldSmooth,0.098716,1.9,1,1.2,1,1,3,16671,539
1602,64630,2,6,18,cubehelix_25,629.557,fieldSmooth,0.098716,1.9,1,1.2,0,0,6,13618,527
1602,64631,2,7,19,cubehelix_25,629.557,fieldSmooth,0.098716,1.9,1,1.2,1,1,5,35073,513
1602,64632,2,8,20,cubehelix_25,629.557,fieldSmooth,0.098716,1.9,1,1.2,1,1,6,21876,501
1602,64633,2,9,21,cubehelix_25,629.557,fieldSmooth,0.098716,1.9,1,1.2,1,1,3,24568,497
1602,64634,2,10,22,cubehelix_25,629.557,fieldSmooth,0.098716,1.9,1,1.2,1,2,2,21231,517
1602,64635,2,11,23,cubehelix_25,629.557,fieldSmooth,0.098716,1.9,1,1.2,1,1,2,11327,530
1602,64636,2,12,24,cubehelix_25,629.557,fieldSmooth,0.098716,1.9,1,1.2,1,1,4,17009,514
1602,64613,1,1,1,cubehelix_05,253.356,fieldSmooth,0.098716,1.9,1,1.2,1,1,6,13247,1285
1602,64614,1,2,2,cubehelix_05,253.356,fieldSmooth,0.098716,1.9,1,1.2,1,1,2,16595,533
1602,64615,1,3,3,cubehelix_05,253.356,fieldSmooth,0.098716,1.9,1,1.2,1,2,4,45920,521
1602,64616,1,4,4,cubehelix_05,253.356,fieldSmooth,0.098716,1.9,1,1.2,1,2,2,17562,577
1602,64617,1,5,5,cubehelix_05,253.356,fieldSmooth,0.098716,1.9,1,1.2,1,2,3,21561,529
1602,64618,1,6,6,cubehelix_05,253.356,fieldSmooth,0.098716,1.9,1,1.2,1,1,4,19503,529
1602,64619,1,7,7,cubehelix_05,253.356,fieldSmooth,0.098716,1.9,1,1.2,1,2,1,33243,522
1602,64620,1,8,8,cubehelix_05,253.356,fieldSmooth,0.098716,1.9,1,1.2,1,2,5,9737,512
1602,64621,1,9,9,cubehelix_05,253.356,fieldSmooth,0.098716,1.9,1,1.2,1,2,1,8501,502
1602,64622,1,10,10,cubehelix_05,253.356,fieldSmooth,0.098716,1.9,1,1.2,1,2,2,10145,561
1602,64623,1,11,11,cubehelix_05,253.356,fieldSmooth,0.098716,1.9,1,1.2,1,2,5,27623,515
1602,64624,1,12,12,cubehelix_05,253.356,fieldSmooth,0.098716,1.9,1,1.2,1,2,2,20691,502
1605,64229,2,1,13,cubehelix_15,435.233,fieldSmooth,0.098716,1.9,1,1.2,0,0,1,1399,585
1605,64230,2,2,14,cubehelix_15,435.233,fieldSmooth,0.098716,1.9,1,1.2,1,2,6,1381,583
1605,64231,2,3,15,cubehelix_15,435.233,fieldSmooth,0.098716,1.9,1,1.2,0,0,6,1506,585
1605,64232,2,4,16,cubehelix_15,435.233,fieldSmooth,0.098716,1.9,1,1.2,0,0,2,6124,589
1605,64233,2,5,17,cubehelix_15,435.233,fieldSmooth,0.098716,1.9,1,1.2,1,2,6,3342,591
1605,64234,2,6,18,cubehelix_15,435.233,fieldSmooth,0.098716,1.9,1,1.2,1,1,5,3106,586
1605,64235,2,7,19,cubehelix_15,435.233,fieldSmooth,0.098716,1.9,1,1.2,1,1,2,2810,585
1605,64236,2,8,20,cubehelix_15,435.233,fieldSmooth,0.098716,1.9,1,1.2,0,0,2,3950,588
1605,64237,2,9,21,cubehelix_15,435.233,fieldSmooth,0.098716,1.9,1,1.2,1,2,2,1321,603
1605,64238,2,10,22,cubehelix_15,435.233,fieldSmooth,0.098716,1.9,1,1.2,1,2,6,851,591
1605,64239,2,11,23,cubehelix_15,435.233,fieldSmooth,0.098716,1.9,1,1.2,0,0,3,2300,592
1605,64240,2,12,24,cubehelix_15,435.233,fieldSmooth,0.098716,1.9,1,1.2,0,0,1,1212,590
1605,64241,3,1,25,cubehelix_25,629.557,fieldSmooth,0.098716,1.9,1,1.2,1,1,6,1752,593
1605,64242,3,2,26,cubehelix_25,629.557,fieldSmooth,0.098716,1.9,1,1.2,0,0,6,1515,585
1605,64243,3,3,27,cubehelix_25,629.557,fieldSmooth,0.098716,1.9,1,1.2,1,1,2,1234,583
1605,64244,3,4,28,cubehelix_25,629.557,fieldSmooth,0.098716,1.9,1,1.2,1,1,1,926,583
1605,64245,3,5,29,cubehelix_25,629.557,fieldSmooth,0.098716,1.9,1,1.2,1,1,6,1435,584
1605,64246,3,6,30,cubehelix_25,629.557,fieldSmooth,0.098716,1.9,1,1.2,1,1,6,1606,580
1605,64247,3,7,31,cubehelix_25,629.557,fieldSmooth,0.098716,1.9,1,1.2,1,2,1,4995,584
1605,64248,3,8,32,cubehelix_25,629.557,fieldSmooth,0.098716,1.9,1,1.2,1,1,1,3633,587
1605,64249,3,9,33,cubehelix_25,629.557,fieldSmooth,0.098716,1.9,1,1.2,1,2,3,1857,586
1605,64250,3,10,34,cubehelix_25,629.557,fieldSmooth,0.098716,1.9,1,1.2,0,0,3,1231,589
1605,64251,3,11,35,cubehelix_25,629.557,fieldSmooth,0.098716,1.9,1,1.2,0,0,6,960,588
1605,64252,3,12,36,cubehelix_25,629.557,fieldSmooth,0.098716,1.9,1,1.2,0,0,2,844,589
1605,64217,1,1,1,cubehelix_05,253.356,fieldSmooth,0.098716,1.9,1,1.2,1,1,1,1380,615
1605,64218,1,2,2,cubehelix_05,253.356,fieldSmooth,0.098716,1.9,1,1.2,0,0,3,2350,590
1605,64219,1,3,3,cubehelix_05,253.356,fieldSmooth,0.098716,1.9,1,1.2,0,0,3,3026,592
1605,64220,1,4,4,cubehelix_05,253.356,fieldSmooth,0.098716,1.9,1,1.2,1,1,4,2655,588
1605,64221,1,5,5,cubehelix_05,253.356,fieldSmooth,0.098716,1.9,1,1.2,1,2,6,1808,586
1605,64222,1,6,6,cubehelix_05,253.356,fieldSmooth,0.098716,1.9,1,1.2,0,0,1,3973,584
1605,64223,1,7,7,cubehelix_05,253.356,fieldSmooth,0.098716,1.9,1,1.2,0,0,4,1817,585
1605,64224,1,8,8,cubehelix_05,253.356,fieldSmooth,0.098716,1.9,1,1.2,1,1,3,1572,583
1605,64225,1,9,9,cubehelix_05,253.356,fieldSmooth,0.098716,1.9,1,1.2,0,0,4,1794,585
1605,64226,1,10,10,cubehelix_05,253.356,fieldSmooth,0.098716,1.9,1,1.2,0,0,6,1987,584
1605,64227,1,11,11,cubehelix_05,253.356,fieldSmooth,0.098716,1.9,1,1.2,0,0,4,1678,583
1605,64228,1,12,12,cubehelix_05,253.356,fieldSmooth,0.098716,1.9,1,1.2,0,0,5,4715,593
1607,64445,2,1,13,cubehelix_15,435.233,fieldSmooth,0.098716,1.9,1,1.2,1,1,6,5514,923
1607,64446,2,2,14,cubehelix_15,435.233,fieldSmooth,0.098716,1.9,1,1.2,1,1,2,2373,837
1607,64447,2,3,15,cubehelix_15,435.233,fieldSmooth,0.098716,1.9,1,1.2,1,2,4,4669,798
1607,64448,2,4,16,cubehelix_15,435.233,fieldSmooth,0.098716,1.9,1,1.2,0,0,4,4081,823
1607,64449,2,5,17,cubehelix_15,435.233,fieldSmooth,0.098716,1.9,1,1.2,0,0,1,10524,828
1607,64450,2,6,18,cubehelix_15,435.233,fieldSmooth,0.098716,1.9,1,1.2,1,2,6,4130,881
1607,64451,2,7,19,cubehelix_15,435.233,fieldSmooth,0.098716,1.9,1,1.2,1,1,1,3870,830
1607,64452,2,8,20,cubehelix_15,435.233,fieldSmooth,0.098716,1.9,1,1.2,1,1,6,3634,867
1607,64453,2,9,21,cubehelix_15,435.233,fieldSmooth,0.098716,1.9,1,1.2,1,1,5,4782,780
1607,64454,2,10,22,cubehelix_15,435.233,fieldSmooth,0.098716,1.9,1,1.2,1,1,1,3200,828
1607,64455,2,11,23,cubehelix_15,435.233,fieldSmooth,0.098716,1.9,1,1.2,1,1,6,2861,860
1607,64456,2,12,24,cubehelix_15,435.233,fieldSmooth,0.098716,1.9,1,1.2,1,1,1,6170,814
1607,64433,1,1,1,cubehelix_25,629.557,fieldSmooth,0.098716,1.9,1,1.2,1,1,6,7771,2036
