subjectid,expcondition,responseid,block,trial,stimulus,labLength,vis,targetType,centerPerturb,noisePerturb,noisePerturbCount,noiseAmplitude,correct,colormap1Time,colormap2Time,colormapSwitch,initialColormap,finalColormap,modelChoice,selectedCanvas,responseTime,generationTime
1397,colorstoggle,59597,1,1,1,102.589,fieldSmooth,2,0,1.9,1,1.1,0,11379,0,0,1,1,0,5,11379,1149
1397,colorstoggle,59598,1,2,2,102.589,fieldSmooth,2,0,1.9,1,1.1,1,0,22117,0,2,2,1,6,22117,518
1397,colorstoggle,59599,1,3,3,102.589,fieldSmooth,2,0,1.9,1,1.1,0,4633,26087,2,2,2,0,1,31024,389
1397,colorstoggle,59600,1,1,4,102.589,fieldSmooth,1,0.098716,0,0,1.1,1,0,16787,0,2,2,1,6,16787,380
1397,colorstoggle,59601,1,2,5,102.589,fieldSmooth,1,0.098716,0,0,1.1,0,0,18513,0,2,2,0,6,18513,358
1397,colorstoggle,59602,1,3,6,102.589,fieldSmooth,1,0.098716,0,0,1.1,1,14215,0,0,1,1,1,4,14215,361
1397,colorstoggle,59603,1,4,7,102.589,fieldSmooth,1,0.098716,0,0,1.1,1,22725,0,0,1,1,1,1,22725,430
1397,colorstoggle,59604,1,4,8,102.589,fieldSmooth,2,0,1.9,1,1.1,1,15192,0,0,1,1,1,6,15192,364
1397,colorstoggle,59605,2,1,9,419.935,fieldSmooth,2,0,1.9,1,1.1,1,14847,0,0,1,1,1,1,14846,380
1397,colorstoggle,59606,2,1,10,419.935,fieldSmooth,1,0.098716,0,0,1.1,0,0,11960,0,2,2,0,1,11960,370
1397,colorstoggle,59607,2,2,11,419.935,fieldSmooth,1,0.098716,0,0,1.1,1,15140,0,0,1,1,1,5,15140,368
1397,colorstoggle,59608,2,3,12,419.935,fieldSmooth,1,0.098716,0,0,1.1,1,0,42702,0,2,2,1,5,42702,385
1397,colorstoggle,59609,2,2,13,419.935,fieldSmooth,2,0,1.9,1,1.1,0,48884,0,0,1,1,0,6,48884,438
1397,colorstoggle,59610,2,4,14,419.935,fieldSmooth,1,0.098716,0,0,1.1,0,0,14420,0,2,2,0,2,14420,357
1397,colorstoggle,59611,2,3,15,419.935,fieldSmooth,2,0,1.9,1,1.1,0,0,22311,0,2,2,0,1,22311,382
1397,colorstoggle,59612,2,4,16,419.935,fieldSmooth,2,0,1.9,1,1.1,0,0,17394,0,2,2,0,6,17393,359
1397,colorstoggle,59613,3,1,17,102.589,fieldSmooth,2,0,1.9,1,1.1,0,34756,0,0,1,1,0,3,34756,376
1397,colorstoggle,59614,3,1,18,102.589,fieldSmooth,1,0.098716,0,0,1.1,1,0,305941,0,2,2,1,3,305941,448
1397,colorstoggle,59615,3,2,19,102.589,fieldSmooth,2,0,1.9,1,1.1,0,15409,0,0,1,1,0,4,15409,505
1397,colorstoggle,59616,3,3,20,102.589,fieldSmooth,2,0,1.9,1,1.1,0,9520,0,0,1,1,0,6,9520,449
1397,colorstoggle,59617,3,2,21,102.589,fieldSmooth,1,0.098716,0,0,1.1,1,0,6618,0,2,2,1,1,6618,367
1397,colorstoggle,59618,3,3,22,102.589,fieldSmooth,1,0.098716,0,0,1.1,0,10845,0,0,1,1,0,4,10845,350
1397,colorstoggle,59619,3,4,23,102.589,fieldSmooth,1,0.098716,0,0,1.1,0,20548,0,0,1,1,0,5,20548,376
1397,colorstoggle,59620,3,4,24,102.589,fieldSmooth,2,0,1.9,1,1.1,0,10694,0,0,1,1,0,6,10693,373
1397,colorstoggle,59621,4,1,25,419.935,fieldSmooth,1,0.098716,0,0,1.1,0,17342,2,1,1,2,0,4,17488,417
1397,colorstoggle,59622,4,1,26,419.935,fieldSmooth,2,0,1.9,1,1.1,1,18053,0,0,1,1,1,2,18053,397
1397,colorstoggle,59623,4,2,27,419.935,fieldSmooth,1,0.098716,0,0,1.1,1,15517,0,0,1,1,1,6,15517,428
1397,colorstoggle,59624,4,3,28,419.935,fieldSmooth,1,0.098716,0,0,1.1,0,0,7052,0,2,2,0,6,7052,353
1397,colorstoggle,59625,4,2,29,419.935,fieldSmooth,2,0,1.9,1,1.1,0,10475,0,0,1,1,0,3,10475,368
1397,colorstoggle,59626,4,3,30,419.935,fieldSmooth,2,0,1.9,1,1.1,0,11631,0,0,1,1,0,6,11631,389
1397,colorstoggle,59627,4,4,31,419.935,fieldSmooth,1,0.098716,0,0,1.1,1,11176,0,0,1,1,1,3,11176,412
1397,colorstoggle,59628,4,4,32,419.935,fieldSmooth,2,0,1.9,1,1.1,0,0,6825,0,2,2,0,6,6825,341
1398,colorstoggle,59693,1,1,1,419.935,fieldSmooth,1,0.098716,0,0,1.1,1,917369,20250,1,1,2,1,6,937724,728
1398,colorstoggle,59694,1,2,2,419.935,fieldSmooth,1,0.098716,0,0,1.1,1,0,8864,0,2,2,1,2,8864,302
1398,colorstoggle,59695,1,1,3,419.935,fieldSmooth,2,0,1.9,1,1.1,1,9844,17995,1,1,2,1,1,27943,290
1398,colorstoggle,59696,1,2,4,419.935,fieldSmooth,2,0,1.9,1,1.1,0,15643,44420,2,2,2,0,4,60277,248
1398,colorstoggle,59697,1,3,5,419.935,fieldSmooth,1,0.098716,0,0,1.1,1,18215,10817,3,2,1,1,3,29322,230
1398,colorstoggle,59698,1,3,6,419.935,fieldSmooth,2,0,1.9,1,1.1,0,14993,14183,1,2,1,0,3,29291,236
1398,colorstoggle,59699,1,4,7,419.935,fieldSmooth,2,0,1.9,1,1.1,1,29258,21952,2,1,1,1,5,51414,276
1398,colorstoggle,59700,1,4,8,419.935,fieldSmooth,1,0.098716,0,0,1.1,1,22248,16203,2,1,1,1,2,38632,238
1398,colorstoggle,59701,2,1,9,102.589,fieldSmooth,1,0.098716,0,0,1.1,0,21796,2827,2,1,1,0,4,24855,269
1398,colorstoggle,59702,2,1,10,102.589,fieldSmooth,2,0,1.9,1,1.1,0,6986,7538,1,2,1,0,6,14634,236
1398,colorstoggle,59703,2,2,11,102.589,fieldSmooth,2,0,1.9,1,1.1,1,40506,24724,3,2,1,1,6,65536,255
1398,colorstoggle,59704,2,2,12,102.589,fieldSmooth,1,0.098716,0,0,1.1,0,13516,11204,1,2,1,0,6,24803,247
1398,colorstoggle,59705,2,3,13,102.589,fieldSmooth,2,0,1.9,1,1.1,0,40003,16988,1,1,2,0,1,57089,234
1398,colorstoggle,59706,2,3,14,102.589,fieldSmooth,1,0.098716,0,0,1.1,1,19885,0,0,1,1,1,4,19885,232
1398,colorstoggle,59707,2,4,15,102.589,fieldSmooth,2,0,1.9,1,1.1,1,20177,0,0,1,1,1,6,20177,231
1398,colorstoggle,59708,2,4,16,102.589,fieldSmooth,1,0.098716,0,0,1.1,1,0,43040,0,2,2,1,4,43040,241
1398,colorstoggle,59709,3,1,17,102.589,fieldSmooth,1,0.098716,0,0,1.1,1,26336,0,0,1,1,1,4,26336,233
1398,colorstoggle,59710,3,1,18,102.589,fieldSmooth,2,0,1.9,1,1.1,1,18391,0,0,1,1,1,3,18391,238
1398,colorstoggle,59711,3,2,19,102.589,fieldSmooth,2,0,1.9,1,1.1,0,16142,13416,1,2,1,0,5,29639,255
1398,colorstoggle,59712,3,3,20,102.589,fieldSmooth,2,0,1.9,1,1.1,0,36299,35884,2,1,1,0,6,72394,230
1398,colorstoggle,59713,3,4,21,102.589,fieldSmooth,2,0,1.9,1,1.1,1,12698,10903,1,2,1,1,6,23725,264
1398,colorstoggle,59714,3,2,22,102.589,fieldSmooth,1,0.098716,0,0,1.1,1,7683,7057,1,2,1,1,3,14849,249
1398,colorstoggle,59715,3,3,23,102.589,fieldSmooth,1,0.098716,0,0,1.1,1,0,18010,0,2,2,1,4,18009,299
1398,colorstoggle,59716,3,4,24,102.589,fieldSmooth,1,0.098716,0,0,1.1,1,15824,29636,1,1,2,1,1,45614,278
1398,colorstoggle,59717,4,1,25,419.935,fieldSmooth,1,0.098716,0,0,1.1,0,8788,5571,1,2,1,0,4,14426,251
1398,colorstoggle,59718,4,1,26,419.935,fieldSmooth,2,0,1.9,1,1.1,0,58746,17134,3,2,1,0,2,76198,232
1398,colorstoggle,59719,4,2,27,419.935,fieldSmooth,2,0,1.9,1,1.1,1,93909,8569,1,2,1,1,3,102567,240
1398,colorstoggle,59720,4,2,28,419.935,fieldSmooth,1,0.098716,0,0,1.1,1,8691,0,0,1,1,1,3,8691,228
1398,colorstoggle,59721,4,3,29,419.935,fieldSmooth,1,0.098716,0,0,1.1,1,11628,0,0,1,1,1,6,11628,304
1398,colorstoggle,59722,4,3,30,419.935,fieldSmooth,2,0,1.9,1,1.1,1,36366,7497,1,2,1,1,5,43961,261
1398,colorstoggle,59723,4,4,31,419.935,fieldSmooth,1,0.098716,0,0,1.1,1,0,6084,0,2,2,1,3,6084,254
1398,colorstoggle,59724,4,4,32,419.935,fieldSmooth,2,0,1.9,1,1.1,1,0,6253,0,2,2,1,3,6253,229
1405,colorstoggle,59533,1,1,1,419.935,fieldSmooth,1,0.098716,0,0,1.1,1,14833,6174,1,1,2,1,3,21260,452
1405,colorstoggle,59534,1,2,2,419.935,fieldSmooth,1,0.098716,0,0,1.1,1,6336,8671,2,2,2,1,5,15473,492
1405,colorstoggle,59535,1,1,3,419.935,fieldSmooth,2,0,1.9,1,1.1,0,5609,3177,2,2,2,0,4,9266,428
1405,colorstoggle,59536,1,2,4,419.935,fieldSmooth,2,0,1.9,1,1.1,0,10037,1825,3,2,1,0,6,12582,534
1405,colorstoggle,59537,1,3,5,419.935,fieldSmooth,1,0.098716,0,0,1.1,0,7465,8671,2,2,2,0,2,16791,593
1405,colorstoggle,59538,1,3,6,419.935,fieldSmooth,2,0,1.9,1,1.1,0,7301,4070,2,2,2,0,6,11846,461
1405,colorstoggle,59539,1,4,7,419.935,fieldSmooth,2,0,1.9,1,1.1,0,6190,4332,1,1,2,0,3,10773,457
1405,colorstoggle,59540,1,4,8,419.935,fieldSmooth,1,0.098716,0,0,1.1,0,7458,6193,2,2,2,0,3,14142,437
1405,colorstoggle,59541,2,1,9,419.935,fieldSmooth,2,0,1.9,1,1.1,0,6428,10760,3,2,2,0,3,17885,455
1405,colorstoggle,59542,2,2,10,419.935,fieldSmooth,2,0,1.9,1,1.1,1,8240,4686,1,1,2,1,5,13162,447
1405,colorstoggle,59543,2,1,11,419.935,fieldSmooth,1,0.098716,0,0,1.1,0,7430,6456,3,1,2,0,4,14593,454
1405,colorstoggle,59544,2,2,12,419.935,fieldSmooth,1,0.098716,0,0,1.1,1,7205,1143,1,2,1,1,1,8565,401
1405,colorstoggle,59545,2,3,13,419.935,fieldSmooth,1,0.098716,0,0,1.1,1,6401,0,0,1,1,1,6,6401,419
1405,colorstoggle,59546,2,4,14,419.935,fieldSmooth,1,0.098716,0,0,1.1,0,5806,4915,2,2,2,0,4,11201,429
1405,colorstoggle,59547,2,3,15,419.935,fieldSmooth,2,0,1.9,1,1.1,1,7364,6356,2,2,2,1,5,14178,441
1405,colorstoggle,59548,2,4,16,419.935,fieldSmooth,2,0,1.9,1,1.1,0,5537,7370,2,2,2,0,1,13385,421
1405,colorstoggle,59549,3,1,17,102.589,fieldSmooth,2,0,1.9,1,1.1,1,9399,3067,3,2,2,1,3,13171,448
1405,colorstoggle,59550,3,1,18,102.589,fieldSmooth,1,0.098716,0,0,1.1,0,5002,9206,2,2,2,0,1,14649,479
1405,colorstoggle,59551,3,2,19,102.589,fieldSmooth,2,0,1.9,1,1.1,1,5330,9567,2,2,2,1,2,15329,456
1405,colorstoggle,59552,3,2,20,102.589,fieldSmooth,1,0.098716,0,0,1.1,0,3568,9673,1,1,2,0,2,13491,415
1405,colorstoggle,59553,3,3,21,102.589,fieldSmooth,2,0,1.9,1,1.1,1,6747,6323,2,2,2,1,3,13541,429
1405,colorstoggle,59554,3,4,22,102.589,fieldSmooth,2,0,1.9,1,1.1,0,6840,4690,2,2,2,0,6,12048,394
1405,colorstoggle,59555,3,3,23,102.589,fieldSmooth,1,0.098716,0,0,1.1,0,0,4047,0,2,2,0,3,4047,455
1405,colorstoggle,59556,3,4,24,102.589,fieldSmooth,1,0.098716,0,0,1.1,0,0,4498,0,2,2,0,2,4498,396
1405,colorstoggle,59557,4,1,25,102.589,fieldSmooth,1,0.098716,0,0,1.1,0,3307,6793,2,2,2,0,1,10568,392
1405,colorstoggle,59558,4,2,26,102.589,fieldSmooth,1,0.098716,0,0,1.1,1,4710,208,2,1,1,1,6,5376,441
1405,colorstoggle,59559,4,3,27,102.589,fieldSmooth,1,0.098716,0,0,1.1,1,4048,1722,1,1,2,1,4,5993,398
1405,colorstoggle,59560,4,4,28,102.589,fieldSmooth,1,0.098716,0,0,1.1,1,5072,8783,2,2,2,1,5,14348,509
1405,colorstoggle,59561,4,1,29,102.589,fieldSmooth,2,0,1.9,1,1.1,0,5754,5477,2,2,2,0,5,11684,454
1405,colorstoggle,59562,4,2,30,102.589,fieldSmooth,2,0,1.9,1,1.1,1,3134,5893,2,2,2,1,4,9463,481
1405,colorstoggle,59563,4,3,31,102.589,fieldSmooth,2,0,1.9,1,1.1,1,4311,3496,1,1,2,1,2,8046,452
1405,colorstoggle,59564,4,4,32,102.589,fieldSmooth,2,0,1.9,1,1.1,1,1163,5730,1,1,2,1,6,7141,391
1406,colorstoggle,59821,1,1,1,419.935,fieldSmooth,1,0.098716,0,0,1.1,1,13752,4386,4,1,1,1,5,18242,493
1406,colorstoggle,59822,1,2,2,419.935,fieldSmooth,1,0.098716,0,0,1.1,1,7458,3761,2,1,1,1,6,11269,167
1406,colorstoggle,59823,1,1,3,419.935,fieldSmooth,2,0,1.9,1,1.1,1,5923,6741,1,1,2,1,5,12689,158
1406,colorstoggle,59824,1,2,4,419.935,fieldSmooth,2,0,1.9,1,1.1,1,386299,18345,3,1,2,1,3,404725,153
1406,colorstoggle,59825,1,3,5,419.935,fieldSmooth,1,0.098716,0,0,1.1,1,10734,8455,2,1,1,1,5,19240,161
1406,colorstoggle,59826,1,3,6,419.935,fieldSmooth,2,0,1.9,1,1.1,0,34202,14422,6,1,1,0,6,48773,157
1406,colorstoggle,59827,1,4,7,419.935,fieldSmooth,2,0,1.9,1,1.1,1,42075,11727,3,2,1,1,2,53880,153
1406,colorstoggle,59828,1,4,8,419.935,fieldSmooth,1,0.098716,0,0,1.1,1,5437,11801,1,2,1,1,5,17265,152
1406,colorstoggle,59829,2,1,9,102.589,fieldSmooth,2,0,1.9,1,1.1,0,44820,6840,4,2,1,0,3,51759,154
1406,colorstoggle,59830,2,2,10,102.589,fieldSmooth,2,0,1.9,1,1.1,1,24653,10538,5,2,1,1,2,35315,152
1406,colorstoggle,59831,2,1,11,102.589,fieldSmooth,1,0.098716,0,0,1.1,1,7832,7448,1,2,1,1,3,15303,155
1406,colorstoggle,59832,2,2,12,102.589,fieldSmooth,1,0.098716,0,0,1.1,1,4929,0,0,1,1,1,5,4929,151
1406,colorstoggle,59833,2,3,13,102.589,fieldSmooth,1,0.098716,0,0,1.1,1,13434,7889,2,1,1,1,3,21370,148
1406,colorstoggle,59834,2,3,14,102.589,fieldSmooth,2,0,1.9,1,1.1,1,1743,6122,1,2,1,1,2,7890,150
1406,colorstoggle,59835,2,4,15,102.589,fieldSmooth,2,0,1.9,1,1.1,1,2313,5155,1,2,1,1,3,7492,156
1406,colorstoggle,59836,2,4,16,102.589,fieldSmooth,1,0.098716,0,0,1.1,1,9206,5179,1,2,1,1,5,14419,145
1406,colorstoggle,59837,3,1,17,419.935,fieldSmooth,2,0,1.9,1,1.1,1,24241,3978,2,1,1,1,6,28267,165
1406,colorstoggle,59838,3,1,18,419.935,fieldSmooth,1,0.098716,0,0,1.1,1,14485,26001,2,1,1,1,4,40534,145
1406,colorstoggle,59839,3,2,19,419.935,fieldSmooth,2,0,1.9,1,1.1,1,16818,1298,2,1,1,1,1,18162,153
1406,colorstoggle,59840,3,2,20,419.935,fieldSmooth,1,0.098716,0,0,1.1,1,7351,10506,1,2,1,1,6,17882,151
1406,colorstoggle,59841,3,3,21,419.935,fieldSmooth,1,0.098716,0,0,1.1,1,18511,8980,1,2,1,1,6,27524,151
1406,colorstoggle,59842,3,3,22,419.935,fieldSmooth,2,0,1.9,1,1.1,1,12323,7782,2,1,1,1,5,20158,149
1406,colorstoggle,59843,3,4,23,419.935,fieldSmooth,2,0,1.9,1,1.1,1,11752,2905,1,1,2,1,1,14680,152
1406,colorstoggle,59844,3,4,24,419.935,fieldSmooth,1,0.098716,0,0,1.1,1,6361,0,0,1,1,1,1,6361,154
1406,colorstoggle,59845,4,1,25,102.589,fieldSmooth,2,0,1.9,1,1.1,1,23261,7329,4,1,1,1,6,30691,149
1406,colorstoggle,59846,4,1,26,102.589,fieldSmooth,1,0.098716,0,0,1.1,1,9175,18078,1,2,1,1,1,27279,145
1406,colorstoggle,59847,4,2,27,102.589,fieldSmooth,1,0.098716,0,0,1.1,1,4758,0,0,1,1,1,3,4758,151
1406,colorstoggle,59848,4,2,28,102.589,fieldSmooth,2,0,1.9,1,1.1,1,4985,4198,2,1,1,1,3,9233,153
1406,colorstoggle,59849,4,3,29,102.589,fieldSmooth,2,0,1.9,1,1.1,1,26930,47834,3,2,1,1,2,74841,149
1406,colorstoggle,59850,4,4,30,102.589,fieldSmooth,2,0,1.9,1,1.1,0,15807,7408,2,1,1,0,4,23265,152
1406,colorstoggle,59851,4,3,31,102.589,fieldSmooth,1,0.098716,0,0,1.1,1,7671,2131,1,2,1,1,6,9827,150
1406,colorstoggle,59852,4,4,32,102.589,fieldSmooth,1,0.098716,0,0,1.1,1,12952,8233,4,1,1,1,4,21281,150
1407,colorstoggle,59565,1,1,1,102.589,fieldSmooth,2,0,1.9,1,1.1,0,10341,5831,4,1,1,0,5,16457,3301
1407,colorstoggle,59566,1,2,2,102.589,fieldSmooth,2,0,1.9,1,1.1,1,5409,1449,1,2,1,1,2,6915,260
1407,colorstoggle,59567,1,1,3,102.589,fieldSmooth,1,0.098716,0,0,1.1,0,5988,5836,2,1,1,0,1,11941,191
1407,colorstoggle,59568,1,2,4,102.589,fieldSmooth,1,0.098716,0,0,1.1,1,7487,5864,2,1,1,1,4,13461,185
1407,colorstoggle,59569,1,3,5,102.589,fieldSmooth,2,0,1.9,1,1.1,1,4582,5085,2,2,2,1,6,9795,189
1407,colorstoggle,59570,1,3,6,102.589,fieldSmooth,1,0.098716,0,0,1.1,0,6229,7595,4,2,2,0,4,14059,205
1407,colorstoggle,59571,1,4,7,102.589,fieldSmooth,2,0,1.9,1,1.1,0,4437,4915,2,2,2,0,3,9464,195
1407,colorstoggle,59572,1,4,8,102.589,fieldSmooth,1,0.098716,0,0,1.1,1,9225,6111,3,2,1,1,4,15523,202
1407,colorstoggle,59573,2,1,9,419.935,fieldSmooth,1,0.098716,0,0,1.1,0,3117,4247,2,2,2,0,6,7479,194
1407,colorstoggle,59574,2,2,10,419.935,fieldSmooth,1,0.098716,0,0,1.1,0,4464,8392,2,2,2,0,2,12974,200
1407,colorstoggle,59575,2,1,11,419.935,fieldSmooth,2,0,1.9,1,1.1,1,1410,6385,1,1,2,1,5,7852,179
1407,colorstoggle,59576,2,3,12,419.935,fieldSmooth,1,0.098716,0,0,1.1,0,5313,4945,2,1,1,0,5,10365,188
1407,colorstoggle,59577,2,2,13,419.935,fieldSmooth,2,0,1.9,1,1.1,1,6562,2533,1,1,2,1,5,9144,188
1407,colorstoggle,59578,2,3,14,419.935,fieldSmooth,2,0,1.9,1,1.1,1,564,3584,1,1,2,1,3,4199,190
1407,colorstoggle,59579,2,4,15,419.935,fieldSmooth,2,0,1.9,1,1.1,1,594,6013,1,1,2,1,2,6661,200
1407,colorstoggle,59580,2,4,16,419.935,fieldSmooth,1,0.098716,0,0,1.1,0,4576,7110,5,2,1,0,3,11974,191
1407,colorstoggle,59581,3,1,17,419.935,fieldSmooth,1,0.098716,0,0,1.1,0,7993,2617,2,1,1,0,2,10742,175
1407,colorstoggle,59582,3,1,18,419.935,fieldSmooth,2,0,1.9,1,1.1,1,2667,4514,2,2,2,1,4,7307,194
1407,colorstoggle,59583,3,2,19,419.935,fieldSmooth,1,0.098716,0,0,1.1,0,3510,4598,3,1,2,0,3,8260,193
1407,colorstoggle,59584,3,2,20,419.935,fieldSmooth,2,0,1.9,1,1.1,0,5088,3737,4,1,1,0,1,9047,193
1407,colorstoggle,59585,3,3,21,419.935,fieldSmooth,2,0,1.9,1,1.1,1,5008,3123,3,2,1,1,6,8311,188
1407,colorstoggle,59586,3,4,22,419.935,fieldSmooth,2,0,1.9,1,1.1,1,2295,5237,2,2,2,1,2,7646,208
1407,colorstoggle,59587,3,3,23,419.935,fieldSmooth,1,0.098716,0,0,1.1,0,749,3942,1,1,2,0,4,4748,188
1407,colorstoggle,59588,3,4,24,419.935,fieldSmooth,1,0.098716,0,0,1.1,0,3056,4798,2,2,2,0,4,7964,196
1407,colorstoggle,59589,4,1,25,102.589,fieldSmooth,2,0,1.9,1,1.1,0,3282,627,1,2,1,0,6,3963,189
1407,colorstoggle,59590,4,2,26,102.589,fieldSmooth,2,0,1.9,1,1.1,1,1904,3832,2,2,2,1,4,5856,187
1407,colorstoggle,59591,4,1,27,102.589,fieldSmooth,1,0.098716,0,0,1.1,0,5052,6598,2,1,1,0,3,11751,188
1407,colorstoggle,59592,4,2,28,102.589,fieldSmooth,1,0.098716,0,0,1.1,0,1584,3117,1,1,2,0,6,4765,181
1407,colorstoggle,59593,4,3,29,102.589,fieldSmooth,2,0,1.9,1,1.1,1,5657,4366,3,2,1,1,4,10202,183
1407,colorstoggle,59594,4,4,30,102.589,fieldSmooth,2,0,1.9,1,1.1,1,4308,4306,6,2,2,1,3,8930,176
1407,colorstoggle,59595,4,3,31,102.589,fieldSmooth,1,0.098716,0,0,1.1,1,5860,2613,2,1,1,1,3,8577,192
1407,colorstoggle,59596,4,4,32,102.589,fieldSmooth,1,0.098716,0,0,1.1,0,8128,2624,4,1,1,0,6,10972,201
1408,colorstoggle,59629,1,1,1,102.589,fieldSmooth,2,0,1.9,1,1.1,1,5939,7492,2,2,2,1,4,13723,223
1408,colorstoggle,59630,1,2,2,102.589,fieldSmooth,2,0,1.9,1,1.1,1,5646,5839,2,2,2,1,2,11722,528
1408,colorstoggle,59631,1,1,3,102.589,fieldSmooth,1,0.098716,0,0,1.1,0,14328,15177,3,1,2,0,4,30047,281
1408,colorstoggle,59632,1,2,4,102.589,fieldSmooth,1,0.098716,0,0,1.1,0,7655,7866,2,2,2,0,1,15820,326
1408,colorstoggle,59633,1,3,5,102.589,fieldSmooth,1,0.098716,0,0,1.1,1,7333,6131,1,1,2,1,6,13644,321
1408,colorstoggle,59634,1,3,6,102.589,fieldSmooth,2,0,1.9,1,1.1,1,14584,17537,3,2,1,1,6,32642,444
1408,colorstoggle,59635,1,4,7,102.589,fieldSmooth,2,0,1.9,1,1.1,1,3801,8969,2,2,2,1,1,13094,318
1408,colorstoggle,59636,1,4,8,102.589,fieldSmooth,1,0.098716,0,0,1.1,1,5368,0,0,1,1,1,4,5367,540
1408,colorstoggle,59637,2,1,9,419.935,fieldSmooth,2,0,1.9,1,1.1,0,9733,8673,2,2,2,0,1,18735,430
1408,colorstoggle,59638,2,1,10,419.935,fieldSmooth,1,0.098716,0,0,1.1,1,5390,6519,1,2,1,1,2,12101,363
1408,colorstoggle,59639,2,2,11,419.935,fieldSmooth,2,0,1.9,1,1.1,0,8828,4200,1,2,1,0,4,13206,384
1408,colorstoggle,59640,2,3,12,419.935,fieldSmooth,2,0,1.9,1,1.1,1,6093,10679,1,2,1,1,1,16886,586
1408,colorstoggle,59641,2,2,13,419.935,fieldSmooth,1,0.098716,0,0,1.1,1,3581,0,0,1,1,1,1,3581,300
1408,colorstoggle,59642,2,3,14,419.935,fieldSmooth,1,0.098716,0,0,1.1,1,4556,0,0,1,1,1,6,4556,285
1408,colorstoggle,59643,2,4,15,419.935,fieldSmooth,1,0.098716,0,0,1.1,0,10515,13545,2,1,1,0,1,24326,483
1408,colorstoggle,59644,2,4,16,419.935,fieldSmooth,2,0,1.9,1,1.1,0,6325,12012,1,1,2,0,5,18475,295
1408,colorstoggle,59645,3,1,17,419.935,fieldSmooth,2,0,1.9,1,1.1,1,10018,5089,1,1,2,1,1,15288,346
1408,colorstoggle,59646,3,2,18,419.935,fieldSmooth,2,0,1.9,1,1.1,0,15375,6756,1,2,1,0,5,22290,277
1408,colorstoggle,59647,3,3,19,419.935,fieldSmooth,2,0,1.9,1,1.1,1,9934,6518,2,2,2,1,3,16766,312
1408,colorstoggle,59648,3,1,20,419.935,fieldSmooth,1,0.098716,0,0,1.1,1,12014,6860,1,2,1,1,4,19027,391
1408,colorstoggle,59649,3,2,21,419.935,fieldSmooth,1,0.098716,0,0,1.1,1,2900,8041,1,2,1,1,6,11065,277
1408,colorstoggle,59650,3,4,22,419.935,fieldSmooth,2,0,1.9,1,1.1,0,9320,4722,1,2,1,0,3,14136,284
1408,colorstoggle,59651,3,3,23,419.935,fieldSmooth,1,0.098716,0,0,1.1,1,1915,3958,1,2,1,1,1,5966,292
1408,colorstoggle,59652,3,4,24,419.935,fieldSmooth,1,0.098716,0,0,1.1,1,3766,0,0,1,1,1,6,3765,390
1408,colorstoggle,59653,4,1,25,102.589,fieldSmooth,1,0.098716,0,0,1.1,1,5301,4059,1,1,2,1,2,9540,731
1408,colorstoggle,59654,4,1,26,102.589,fieldSmooth,2,0,1.9,1,1.1,1,4717,2033,1,1,2,1,3,6900,343
1408,colorstoggle,59655,4,2,27,102.589,fieldSmooth,2,0,1.9,1,1.1,0,7549,5516,1,2,1,0,5,13226,421
1408,colorstoggle,59656,4,2,28,102.589,fieldSmooth,1,0.098716,0,0,1.1,1,3758,0,0,1,1,1,5,3757,339
1408,colorstoggle,59657,4,3,29,102.589,fieldSmooth,2,0,1.9,1,1.1,1,6958,6503,1,1,2,1,5,13653,375
1408,colorstoggle,59658,4,3,30,102.589,fieldSmooth,1,0.098716,0,0,1.1,0,6754,6896,1,2,1,0,6,13840,401
1408,colorstoggle,59659,4,4,31,102.589,fieldSmooth,1,0.098716,0,0,1.1,1,4169,8436,1,2,1,1,2,12786,336
1408,colorstoggle,59660,4,4,32,102.589,fieldSmooth,2,0,1.9,1,1.1,0,11000,8420,1,2,1,0,3,19563,345
1410,colorstoggle,59725,1,1,1,102.589,fieldSmooth,2,0,1.9,1,1.1,1,65707,0,0,1,1,1,3,65707,489
1410,colorstoggle,59726,1,1,2,102.589,fieldSmooth,1,0.098716,0,0,1.1,1,5909,0,0,1,1,1,4,5909,439
1410,colorstoggle,59727,1,2,3,102.589,fieldSmooth,1,0.098716,0,0,1.1,1,14041,65028,1,2,1,1,6,79309,424
1410,colorstoggle,59728,1,2,4,102.589,fieldSmooth,2,0,1.9,1,1.1,1,30830,0,0,1,1,1,6,30830,478
1410,colorstoggle,59729,1,3,5,102.589,fieldSmooth,2,0,1.9,1,1.1,1,0,12998,0,2,2,1,6,12998,422
1410,colorstoggle,59730,1,4,6,102.589,fieldSmooth,2,0,1.9,1,1.1,0,56199,0,0,1,1,0,2,56199,416
1410,colorstoggle,59731,1,3,7,102.589,fieldSmooth,1,0.098716,0,0,1.1,0,14611,0,0,1,1,0,1,14611,417
1410,colorstoggle,59732,1,4,8,102.589,fieldSmooth,1,0.098716,0,0,1.1,1,0,29167,0,2,2,1,5,29167,556
1410,colorstoggle,59733,2,1,9,419.935,fieldSmooth,1,0.098716,0,0,1.1,0,0,161093,0,2,2,0,6,161093,451
1410,colorstoggle,59734,2,1,10,419.935,fieldSmooth,2,0,1.9,1,1.1,0,9732,0,0,1,1,0,3,9732,441
1410,colorstoggle,59735,2,2,11,419.935,fieldSmooth,1,0.098716,0,0,1.1,0,0,7338,0,2,2,0,2,7338,419
1410,colorstoggle,59736,2,3,12,419.935,fieldSmooth,1,0.098716,0,0,1.1,0,0,11261,0,2,2,0,5,11261,412
1410,colorstoggle,59737,2,2,13,419.935,fieldSmooth,2,0,1.9,1,1.1,0,0,11094,0,2,2,0,5,11094,478
1410,colorstoggle,59738,2,3,14,419.935,fieldSmooth,2,0,1.9,1,1.1,1,28550,0,0,1,1,1,6,28550,460
1410,colorstoggle,59739,2,4,15,419.935,fieldSmooth,2,0,1.9,1,1.1,1,22464,0,0,1,1,1,5,22464,426
1410,colorstoggle,59740,2,4,16,419.935,fieldSmooth,1,0.098716,0,0,1.1,1,32840,0,0,1,1,1,3,32840,412
1410,colorstoggle,59741,3,1,17,419.935,fieldSmooth,1,0.098716,0,0,1.1,0,20204,0,0,1,1,0,4,20204,438
1410,colorstoggle,59742,3,2,18,419.935,fieldSmooth,1,0.098716,0,0,1.1,0,0,11216,0,2,2,0,6,11216,411
1410,colorstoggle,59743,3,1,19,419.935,fieldSmooth,2,0,1.9,1,1.1,0,0,6580,0,2,2,0,4,6580,415
1410,colorstoggle,59744,3,2,20,419.935,fieldSmooth,2,0,1.9,1,1.1,1,0,14035,0,2,2,1,1,14035,422
1410,colorstoggle,59745,3,3,21,419.935,fieldSmooth,1,0.098716,0,0,1.1,1,0,27275,0,2,2,1,4,27275,399
1410,colorstoggle,59746,3,3,22,419.935,fieldSmooth,2,0,1.9,1,1.1,1,11837,0,0,1,1,1,1,11837,462
1410,colorstoggle,59747,3,4,23,419.935,fieldSmooth,2,0,1.9,1,1.1,1,0,39254,0,2,2,1,4,39254,429
1410,colorstoggle,59748,3,4,24,419.935,fieldSmooth,1,0.098716,0,0,1.1,1,12300,0,0,1,1,1,4,12300,390
1410,colorstoggle,59749,4,1,25,102.589,fieldSmooth,1,0.098716,0,0,1.1,1,19799,0,0,1,1,1,4,19799,469
1410,colorstoggle,59750,4,1,26,102.589,fieldSmooth,2,0,1.9,1,1.1,1,0,13932,0,2,2,1,6,13932,493
1410,colorstoggle,59751,4,2,27,102.589,fieldSmooth,2,0,1.9,1,1.1,0,31781,0,0,1,1,0,5,31781,418
1410,colorstoggle,59752,4,3,28,102.589,fieldSmooth,2,0,1.9,1,1.1,1,55723,0,0,1,1,1,1,55723,405
1410,colorstoggle,59753,4,2,29,102.589,fieldSmooth,1,0.098716,0,0,1.1,0,0,11952,0,2,2,0,1,11952,406
1410,colorstoggle,59754,4,4,30,102.589,fieldSmooth,2,0,1.9,1,1.1,1,0,23717,0,2,2,1,3,23717,459
1410,colorstoggle,59755,4,3,31,102.589,fieldSmooth,1,0.098716,0,0,1.1,0,0,31202,0,2,2,0,1,31202,447
1410,colorstoggle,59756,4,4,32,102.589,fieldSmooth,1,0.098716,0,0,1.1,0,0,54280,0,2,2,0,3,54280,422
1412,colorstoggle,59853,1,1,1,102.589,fieldSmooth,1,0.098716,0,0,1.1,1,19628,15018,1,2,1,1,3,34954,1675
1412,colorstoggle,59854,1,1,2,102.589,fieldSmooth,2,0,1.9,1,1.1,1,95602,19530,4,1,1,1,4,116083,1287
1412,colorstoggle,59855,1,2,3,102.589,fieldSmooth,2,0,1.9,1,1.1,1,20739,16623,2,1,1,1,6,37842,1312
1412,colorstoggle,59856,1,3,4,102.589,fieldSmooth,2,0,1.9,1,1.1,0,6792,11105,2,2,2,0,1,18385,1020
1412,colorstoggle,59857,1,2,5,102.589,fieldSmooth,1,0.098716,0,0,1.1,1,30309,14477,3,1,2,1,1,45502,1171
1412,colorstoggle,59858,1,3,6,102.589,fieldSmooth,1,0.098716,0,0,1.1,1,5494,1406,2,1,1,1,3,7352,1115
1412,colorstoggle,59859,1,4,7,102.589,fieldSmooth,1,0.098716,0,0,1.1,1,15577,6534,2,1,1,1,2,22596,950
1412,colorstoggle,59860,1,4,8,102.589,fieldSmooth,2,0,1.9,1,1.1,1,26104,18233,3,2,1,1,5,45064,1004
1412,colorstoggle,59861,2,1,9,419.935,fieldSmooth,2,0,1.9,1,1.1,1,27330,45219,3,1,2,1,4,73196,1344
1412,colorstoggle,59862,2,1,10,419.935,fieldSmooth,1,0.098716,0,0,1.1,1,8989,0,0,1,1,1,6,8989,1033
1412,colorstoggle,59863,2,2,11,419.935,fieldSmooth,1,0.098716,0,0,1.1,1,38177,13197,2,1,1,1,1,51807,1032
1412,colorstoggle,59864,2,2,12,419.935,fieldSmooth,2,0,1.9,1,1.1,1,12230,5431,1,1,2,1,3,17858,1174
1412,colorstoggle,59865,2,3,13,419.935,fieldSmooth,2,0,1.9,1,1.1,1,14627,12801,1,1,2,1,4,27652,994
1412,colorstoggle,59866,2,4,14,419.935,fieldSmooth,2,0,1.9,1,1.1,1,12171,8102,13,2,1,1,2,23634,945
1412,colorstoggle,59867,2,3,15,419.935,fieldSmooth,1,0.098716,0,0,1.1,1,9276,0,0,1,1,1,1,9276,913
1412,colorstoggle,59868,2,4,16,419.935,fieldSmooth,1,0.098716,0,0,1.1,1,37049,4365,2,1,1,1,3,41839,913
1412,colorstoggle,59869,3,1,17,102.589,fieldSmooth,2,0,1.9,1,1.1,1,7788,10559,1,2,1,1,2,18593,1046
1412,colorstoggle,59870,3,2,18,102.589,fieldSmooth,2,0,1.9,1,1.1,1,14643,10296,1,1,2,1,6,25153,978
1412,colorstoggle,59871,3,1,19,102.589,fieldSmooth,1,0.098716,0,0,1.1,0,26536,10762,5,2,1,0,4,38546,985
1412,colorstoggle,59872,3,2,20,102.589,fieldSmooth,1,0.098716,0,0,1.1,1,26328,29093,3,2,1,1,2,56138,1041
1412,colorstoggle,59873,3,3,21,102.589,fieldSmooth,1,0.098716,0,0,1.1,1,16021,13079,1,2,1,1,6,29415,1082
1412,colorstoggle,59874,3,3,22,102.589,fieldSmooth,2,0,1.9,1,1.1,0,11797,7290,2,1,1,0,1,19549,988
1412,colorstoggle,59875,3,4,23,102.589,fieldSmooth,2,0,1.9,1,1.1,1,14601,7113,1,1,2,1,6,21947,894
1412,colorstoggle,59876,3,4,24,102.589,fieldSmooth,1,0.098716,0,0,1.1,1,46157,6249,2,1,1,1,2,52994,777
1412,colorstoggle,59877,4,1,25,419.935,fieldSmooth,2,0,1.9,1,1.1,1,27283,36698,2,2,2,1,4,64458,951
1412,colorstoggle,59878,4,1,26,419.935,fieldSmooth,1,0.098716,0,0,1.1,0,18309,27864,3,1,2,0,3,46874,831
1412,colorstoggle,59879,4,2,27,419.935,fieldSmooth,2,0,1.9,1,1.1,0,9631,33893,2,2,2,0,1,43978,916
1412,colorstoggle,59880,4,3,28,419.935,fieldSmooth,2,0,1.9,1,1.1,0,15103,1513,1,1,2,0,6,16829,812
1412,colorstoggle,59881,4,2,29,419.935,fieldSmooth,1,0.098716,0,0,1.1,1,3675,5230,1,2,1,1,4,9130,734
1412,colorstoggle,59882,4,4,30,419.935,fieldSmooth,2,0,1.9,1,1.1,0,8062,4295,1,2,1,0,5,12589,900
1412,colorstoggle,59883,4,3,31,419.935,fieldSmooth,1,0.098716,0,0,1.1,0,2327,3768,1,1,2,0,5,6315,800
1412,colorstoggle,59884,4,4,32,419.935,fieldSmooth,1,0.098716,0,0,1.1,0,1772,3161,1,2,1,0,5,5206,766
1413,colorstoggle,59789,1,1,1,419.935,fieldSmooth,1,0.098716,0,0,1.1,0,0,12179,0,2,2,0,3,12179,1656
1413,colorstoggle,59790,1,1,2,419.935,fieldSmooth,2,0,1.9,1,1.1,0,7100,0,0,1,1,0,4,7100,1273
1413,colorstoggle,59791,1,2,3,419.935,fieldSmooth,2,0,1.9,1,1.1,0,13774,0,0,1,1,0,6,13774,1037
1413,colorstoggle,59792,1,2,4,419.935,fieldSmooth,1,0.098716,0,0,1.1,1,2488,0,0,1,1,1,3,2488,1021
1413,colorstoggle,59793,1,3,5,419.935,fieldSmooth,2,0,1.9,1,1.1,1,8072,0,0,1,1,1,6,8071,1044
1413,colorstoggle,59794,1,4,6,419.935,fieldSmooth,2,0,1.9,1,1.1,0,0,8219,0,2,2,0,6,8218,1001
1413,colorstoggle,59795,1,3,7,419.935,fieldSmooth,1,0.098716,0,0,1.1,0,0,6174,0,2,2,0,3,6174,1068
1413,colorstoggle,59796,1,4,8,419.935,fieldSmooth,1,0.098716,0,0,1.1,0,0,11398,0,2,2,0,2,11397,1101
1413,colorstoggle,59797,2,1,9,102.589,fieldSmooth,1,0.098716,0,0,1.1,1,338019,0,0,1,1,1,4,338019,1284
1413,colorstoggle,59798,2,2,10,102.589,fieldSmooth,1,0.098716,0,0,1.1,0,0,2786,0,2,2,0,4,2786,1023
1413,colorstoggle,59799,2,3,11,102.589,fieldSmooth,1,0.098716,0,0,1.1,1,7217,0,0,1,1,1,4,7217,967
1413,colorstoggle,59800,2,1,12,102.589,fieldSmooth,2,0,1.9,1,1.1,1,0,9020,0,2,2,1,6,9020,1163
1413,colorstoggle,59801,2,2,13,102.589,fieldSmooth,2,0,1.9,1,1.1,0,3113,0,0,1,1,0,3,3113,1127
1413,colorstoggle,59802,2,3,14,102.589,fieldSmooth,2,0,1.9,1,1.1,0,2419,0,0,1,1,0,3,2419,1075
1413,colorstoggle,59803,2,4,15,102.589,fieldSmooth,1,0.098716,0,0,1.1,0,3509,0,0,1,1,0,3,3507,994
1413,colorstoggle,59804,2,4,16,102.589,fieldSmooth,2,0,1.9,1,1.1,1,0,5304,0,2,2,1,1,5304,1168
1413,colorstoggle,59805,3,1,17,419.935,fieldSmooth,2,0,1.9,1,1.1,1,13335,0,0,1,1,1,4,13335,1007
1413,colorstoggle,59806,3,2,18,419.935,fieldSmooth,2,0,1.9,1,1.1,0,3625,0,0,1,1,0,1,3625,1007
1413,colorstoggle,59807,3,1,19,419.935,fieldSmooth,1,0.098716,0,0,1.1,0,9278,0,0,1,1,0,6,9278,952
1413,colorstoggle,59808,3,3,20,419.935,fieldSmooth,2,0,1.9,1,1.1,1,0,6908,0,2,2,1,5,6908,1101
1413,colorstoggle,59809,3,2,21,419.935,fieldSmooth,1,0.098716,0,0,1.1,1,17310,0,0,1,1,1,5,17310,1095
1413,colorstoggle,59810,3,3,22,419.935,fieldSmooth,1,0.098716,0,0,1.1,1,0,11824,0,2,2,1,4,11824,975
1413,colorstoggle,59811,3,4,23,419.935,fieldSmooth,1,0.098716,0,0,1.1,0,18110,0,0,1,1,0,1,18110,973
1413,colorstoggle,59812,3,4,24,419.935,fieldSmooth,2,0,1.9,1,1.1,0,10424,0,0,1,1,0,3,10424,1103
1413,colorstoggle,59813,4,1,25,102.589,fieldSmooth,2,0,1.9,1,1.1,0,0,6960,0,2,2,0,1,6960,1145
1413,colorstoggle,59814,4,2,26,102.589,fieldSmooth,2,0,1.9,1,1.1,1,0,6574,0,2,2,1,5,6574,1001
1413,colorstoggle,59815,4,1,27,102.589,fieldSmooth,1,0.098716,0,0,1.1,0,0,19316,0,2,2,0,3,19316,1015
1413,colorstoggle,59816,4,2,28,102.589,fieldSmooth,1,0.098716,0,0,1.1,0,0,5557,0,2,2,0,1,5556,1092
1413,colorstoggle,59817,4,3,29,102.589,fieldSmooth,1,0.098716,0,0,1.1,0,0,11980,0,2,2,0,1,11980,1138
1413,colorstoggle,59818,4,3,30,102.589,fieldSmooth,2,0,1.9,1,1.1,0,17261,0,0,1,1,0,6,17259,1081
1413,colorstoggle,59819,4,4,31,102.589,fieldSmooth,1,0.098716,0,0,1.1,0,0,6299,0,2,2,0,1,6299,1090
1413,colorstoggle,59820,4,4,32,102.589,fieldSmooth,2,0,1.9,1,1.1,1,0,8496,0,2,2,1,4,8495,1143
1415,colorstoggle,59917,1,1,1,102.589,fieldSmooth,1,0.098716,0,0,1.1,0,29359,14269,7,2,1,0,6,44173,317
1415,colorstoggle,59918,1,2,2,102.589,fieldSmooth,1,0.098716,0,0,1.1,1,25091,5326,1,2,1,1,6,30498,350
1415,colorstoggle,59919,1,1,3,102.589,fieldSmooth,2,0,1.9,1,1.1,1,45582,4739,2,1,1,1,6,50465,321
1415,colorstoggle,59920,1,3,4,102.589,fieldSmooth,1,0.098716,0,0,1.1,1,20290,29608,2,1,1,1,4,50043,330
1415,colorstoggle,59921,1,2,5,102.589,fieldSmooth,2,0,1.9,1,1.1,1,10320,5533,1,2,1,1,4,15941,401
1415,colorstoggle,59922,1,3,6,102.589,fieldSmooth,2,0,1.9,1,1.1,1,104672,9546,1,2,1,1,5,114294,327
1415,colorstoggle,59923,1,4,7,102.589,fieldSmooth,1,0.098716,0,0,1.1,1,9456,2290,4,1,1,1,1,12043,323
1415,colorstoggle,59924,1,4,8,102.589,fieldSmooth,2,0,1.9,1,1.1,1,13472,7887,6,1,1,1,3,21791,325
1415,colorstoggle,59925,2,1,9,102.589,fieldSmooth,1,0.098716,0,0,1.1,1,31996,10275,2,1,1,1,2,42414,321
1415,colorstoggle,59926,2,2,10,102.589,fieldSmooth,1,0.098716,0,0,1.1,1,52690,6996,2,1,1,1,6,59835,314
1415,colorstoggle,59927,2,3,11,102.589,fieldSmooth,1,0.098716,0,0,1.1,1,18992,4893,1,2,1,1,5,23957,318
1415,colorstoggle,59928,2,1,12,102.589,fieldSmooth,2,0,1.9,1,1.1,1,20550,12614,4,1,1,1,4,33474,322
1415,colorstoggle,59929,2,2,13,102.589,fieldSmooth,2,0,1.9,1,1.1,1,55082,27223,4,1,1,1,5,82579,349
1415,colorstoggle,59930,2,3,14,102.589,fieldSmooth,2,0,1.9,1,1.1,1,9200,0,0,1,1,1,4,9200,312
1415,colorstoggle,59931,2,4,15,102.589,fieldSmooth,2,0,1.9,1,1.1,1,7069,6370,2,2,2,1,4,13579,328
1415,colorstoggle,59932,2,4,16,102.589,fieldSmooth,1,0.098716,0,0,1.1,1,36600,32522,3,2,1,1,3,69333,337
1415,colorstoggle,59933,3,1,17,419.935,fieldSmooth,2,0,1.9,1,1.1,1,10265,35440,4,2,2,1,6,45998,330
1415,colorstoggle,59934,3,1,18,419.935,fieldSmooth,1,0.098716,0,0,1.1,1,13947,10049,2,1,1,1,4,24136,324
1415,colorstoggle,59935,3,2,19,419.935,fieldSmooth,2,0,1.9,1,1.1,0,108739,27387,4,1,1,0,4,136405,321
1415,colorstoggle,59936,3,2,20,419.935,fieldSmooth,1,0.098716,0,0,1.1,1,19309,2602,2,1,1,1,2,22061,333
1415,colorstoggle,59937,3,3,21,419.935,fieldSmooth,1,0.098716,0,0,1.1,1,19994,8555,3,2,1,1,6,28760,308
1415,colorstoggle,59938,3,4,22,419.935,fieldSmooth,1,0.098716,0,0,1.1,1,41312,3603,2,1,1,1,4,45063,331
1415,colorstoggle,59939,3,3,23,419.935,fieldSmooth,2,0,1.9,1,1.1,1,38243,11897,3,2,1,1,1,50352,327
1415,colorstoggle,59940,3,4,24,419.935,fieldSmooth,2,0,1.9,1,1.1,1,42399,4112,2,1,1,1,2,46700,332
1415,colorstoggle,59941,4,1,25,419.935,fieldSmooth,1,0.098716,0,0,1.1,1,30023,13015,4,1,1,1,4,43322,324
1415,colorstoggle,59942,4,1,26,419.935,fieldSmooth,2,0,1.9,1,1.1,1,35467,13454,5,1,2,1,4,49286,343
1415,colorstoggle,59943,4,2,27,419.935,fieldSmooth,2,0,1.9,1,1.1,1,9699,17205,2,1,1,1,3,27045,340
1415,colorstoggle,59944,4,3,28,419.935,fieldSmooth,2,0,1.9,1,1.1,1,11984,6379,2,1,1,1,6,18507,314
1415,colorstoggle,59945,4,2,29,419.935,fieldSmooth,1,0.098716,0,0,1.1,1,20768,4823,1,2,1,1,2,25661,321
1415,colorstoggle,59946,4,3,30,419.935,fieldSmooth,1,0.098716,0,0,1.1,1,2952,6660,2,2,2,1,4,9750,312
1415,colorstoggle,59947,4,4,31,419.935,fieldSmooth,1,0.098716,0,0,1.1,1,11920,7239,2,1,1,1,4,19300,317
1415,colorstoggle,59948,4,4,32,419.935,fieldSmooth,2,0,1.9,1,1.1,1,12222,1337,2,1,1,1,1,13706,327
1416,colorstoggle,59757,1,1,1,102.589,fieldSmooth,1,0.098716,0,0,1.1,0,5896,1136,2,1,1,0,4,7203,1660
1416,colorstoggle,59758,1,1,2,102.589,fieldSmooth,2,0,1.9,1,1.1,0,10700,4182,2,1,1,0,3,15050,420
1416,colorstoggle,59759,1,2,3,102.589,fieldSmooth,1,0.098716,0,0,1.1,1,4837,5988,2,2,2,1,3,11041,362
1416,colorstoggle,59760,1,2,4,102.589,fieldSmooth,2,0,1.9,1,1.1,0,36105,5247,7,2,1,0,3,41969,368
1416,colorstoggle,59761,1,3,5,102.589,fieldSmooth,2,0,1.9,1,1.1,0,9701,10327,3,1,2,0,3,20290,344
1416,colorstoggle,59762,1,4,6,102.589,fieldSmooth,2,0,1.9,1,1.1,1,6308,12304,2,1,1,1,2,18781,335
1416,colorstoggle,59763,1,3,7,102.589,fieldSmooth,1,0.098716,0,0,1.1,1,3263,977,1,1,2,1,3,4320,358
1416,colorstoggle,59764,1,4,8,102.589,fieldSmooth,1,0.098716,0,0,1.1,1,4816,0,0,1,1,1,3,4815,340
1416,colorstoggle,59765,2,1,9,419.935,fieldSmooth,1,0.098716,0,0,1.1,1,7303,2153,2,1,1,1,4,9648,358
1416,colorstoggle,59766,2,2,10,419.935,fieldSmooth,1,0.098716,0,0,1.1,1,3318,1500,2,1,1,1,6,4975,353
1416,colorstoggle,59767,2,1,11,419.935,fieldSmooth,2,0,1.9,1,1.1,1,9034,9599,3,2,1,1,5,18887,369
1416,colorstoggle,59768,2,2,12,419.935,fieldSmooth,2,0,1.9,1,1.1,0,9711,5059,2,2,2,0,5,14940,353
1416,colorstoggle,59769,2,3,13,419.935,fieldSmooth,1,0.098716,0,0,1.1,1,6883,8329,3,2,1,1,2,15485,337
1416,colorstoggle,59770,2,3,14,419.935,fieldSmooth,2,0,1.9,1,1.1,1,11227,3427,3,1,2,1,4,14899,354
1416,colorstoggle,59771,2,4,15,419.935,fieldSmooth,1,0.098716,0,0,1.1,0,4519,18654,2,2,2,0,6,23328,339
1416,colorstoggle,59772,2,4,16,419.935,fieldSmooth,2,0,1.9,1,1.1,1,14431,7481,4,1,1,1,6,22243,353
1416,colorstoggle,59773,3,1,17,102.589,fieldSmooth,1,0.098716,0,0,1.1,1,7019,1939,2,1,1,1,6,9144,347
1416,colorstoggle,59774,3,2,18,102.589,fieldSmooth,1,0.098716,0,0,1.1,1,7252,721,1,2,1,1,2,8051,344
1416,colorstoggle,59775,3,3,19,102.589,fieldSmooth,1,0.098716,0,0,1.1,1,5834,707,1,2,1,1,4,6618,361
1416,colorstoggle,59776,3,4,20,102.589,fieldSmooth,1,0.098716,0,0,1.1,1,19717,1799,3,2,1,1,1,21785,348
1416,colorstoggle,59777,3,1,21,102.589,fieldSmooth,2,0,1.9,1,1.1,1,7624,2623,3,2,1,1,6,10504,332
1416,colorstoggle,59778,3,2,22,102.589,fieldSmooth,2,0,1.9,1,1.1,1,14919,11036,8,2,2,1,2,26692,346
1416,colorstoggle,59779,3,3,23,102.589,fieldSmooth,2,0,1.9,1,1.1,0,19710,10048,4,1,1,0,3,30080,340
1416,colorstoggle,59780,3,4,24,102.589,fieldSmooth,2,0,1.9,1,1.1,1,7246,3791,3,1,2,1,2,11314,353
1416,colorstoggle,59781,4,1,25,419.935,fieldSmooth,1,0.098716,0,0,1.1,0,10960,5743,2,1,1,0,6,16859,354
1416,colorstoggle,59782,4,2,26,419.935,fieldSmooth,1,0.098716,0,0,1.1,0,7276,10137,2,2,2,0,3,17569,358
1416,colorstoggle,59783,4,3,27,419.935,fieldSmooth,1,0.098716,0,0,1.1,1,2807,2591,2,2,2,1,3,5554,353
1416,colorstoggle,59784,4,1,28,419.935,fieldSmooth,2,0,1.9,1,1.1,1,6456,9998,2,2,2,1,1,16619,384
1416,colorstoggle,59785,4,4,29,419.935,fieldSmooth,1,0.098716,0,0,1.1,1,6439,6571,2,1,1,1,3,13189,372
1416,colorstoggle,59786,4,2,30,419.935,fieldSmooth,2,0,1.9,1,1.1,0,13169,2328,4,1,1,0,3,15819,363
1416,colorstoggle,59787,4,3,31,419.935,fieldSmooth,2,0,1.9,1,1.1,1,8117,5028,2,2,2,1,5,13307,362
1416,colorstoggle,59788,4,4,32,419.935,fieldSmooth,2,0,1.9,1,1.1,1,4456,3928,2,2,2,1,3,8555,347
1418,colorstoggle,59981,1,1,1,102.589,fieldSmooth,2,0,1.9,1,1.1,1,0,54750,0,2,2,1,5,54750,1873
1418,colorstoggle,59982,1,2,2,102.589,fieldSmooth,2,0,1.9,1,1.1,0,0,17892,0,2,2,0,3,17892,689
1418,colorstoggle,59983,1,1,3,102.589,fieldSmooth,1,0.098716,0,0,1.1,1,13925,0,0,1,1,1,2,13925,620
1418,colorstoggle,59984,1,3,4,102.589,fieldSmooth,2,0,1.9,1,1.1,0,16048,0,0,1,1,0,4,16048,668
1418,colorstoggle,59985,1,2,5,102.589,fieldSmooth,1,0.098716,0,0,1.1,0,0,18822,0,2,2,0,6,18821,703
1418,colorstoggle,59986,1,4,6,102.589,fieldSmooth,2,0,1.9,1,1.1,0,19214,0,0,1,1,0,5,19214,636
1418,colorstoggle,59987,1,3,7,102.589,fieldSmooth,1,0.098716,0,0,1.1,1,5957,0,0,1,1,1,4,5957,652
1418,colorstoggle,59988,1,4,8,102.589,fieldSmooth,1,0.098716,0,0,1.1,1,17089,0,0,1,1,1,4,17088,671
1418,colorstoggle,59989,2,1,9,419.935,fieldSmooth,2,0,1.9,1,1.1,0,0,13552,0,2,2,0,6,13552,877
1418,colorstoggle,59990,2,1,10,419.935,fieldSmooth,1,0.098716,0,0,1.1,0,6970,0,0,1,1,0,6,6970,667
1418,colorstoggle,59991,2,2,11,419.935,fieldSmooth,1,0.098716,0,0,1.1,0,0,18668,0,2,2,0,6,18668,667
1418,colorstoggle,59992,2,2,12,419.935,fieldSmooth,2,0,1.9,1,1.1,1,0,14245,0,2,2,1,6,14245,683
1418,colorstoggle,59993,2,3,13,419.935,fieldSmooth,2,0,1.9,1,1.1,0,16861,0,0,1,1,0,5,16861,650
1418,colorstoggle,59994,2,3,14,419.935,fieldSmooth,1,0.098716,0,0,1.1,0,0,11963,0,2,2,0,6,11963,680
1418,colorstoggle,59995,2,4,15,419.935,fieldSmooth,1,0.098716,0,0,1.1,1,7172,0,0,1,1,1,5,7172,658
1418,colorstoggle,59996,2,4,16,419.935,fieldSmooth,2,0,1.9,1,1.1,0,0,21005,0,2,2,0,6,21005,635
1418,colorstoggle,59997,3,1,17,102.589,fieldSmooth,2,0,1.9,1,1.1,0,0,32171,0,2,2,0,4,32171,637
1418,colorstoggle,59998,3,1,18,102.589,fieldSmooth,1,0.098716,0,0,1.1,0,0,91376,0,2,2,0,5,91376,645
1418,colorstoggle,59999,3,2,19,102.589,fieldSmooth,1,0.098716,0,0,1.1,0,0,12730,0,2,2,0,5,12730,653
1418,colorstoggle,60000,3,3,20,102.589,fieldSmooth,1,0.098716,0,0,1.1,0,16400,0,0,1,1,0,1,16400,703
1418,colorstoggle,60001,3,2,21,102.589,fieldSmooth,2,0,1.9,1,1.1,1,0,5887,0,2,2,1,5,5887,667
1418,colorstoggle,60002,3,3,22,102.589,fieldSmooth,2,0,1.9,1,1.1,0,13022,0,0,1,1,0,4,13022,620
1418,colorstoggle,60003,3,4,23,102.589,fieldSmooth,2,0,1.9,1,1.1,0,0,11436,0,2,2,0,4,11436,620
1418,colorstoggle,60004,3,4,24,102.589,fieldSmooth,1,0.098716,0,0,1.1,1,355780,0,0,1,1,1,6,355780,644
1418,colorstoggle,60005,4,1,25,419.935,fieldSmooth,2,0,1.9,1,1.1,0,41228,0,0,1,1,0,3,41228,716
1418,colorstoggle,60006,4,1,26,419.935,fieldSmooth,1,0.098716,0,0,1.1,1,11195,0,0,1,1,1,6,11195,614
1418,colorstoggle,60007,4,2,27,419.935,fieldSmooth,2,0,1.9,1,1.1,1,0,23340,0,2,2,1,3,23340,641
1418,colorstoggle,60008,4,2,28,419.935,fieldSmooth,1,0.098716,0,0,1.1,0,0,36761,0,2,2,0,5,36761,732
1418,colorstoggle,60009,4,3,29,419.935,fieldSmooth,1,0.098716,0,0,1.1,1,59953,0,0,1,1,1,5,59952,638
1418,colorstoggle,60010,4,3,30,419.935,fieldSmooth,2,0,1.9,1,1.1,0,0,20327,0,2,2,0,6,20327,710
1418,colorstoggle,60011,4,4,31,419.935,fieldSmooth,2,0,1.9,1,1.1,0,33521,0,0,1,1,0,4,33521,656
1418,colorstoggle,60012,4,4,32,419.935,fieldSmooth,1,0.098716,0,0,1.1,0,0,31219,0,2,2,0,3,31219,656
1420,colorstoggle,59949,1,1,1,102.589,fieldSmooth,1,0.098716,0,0,1.1,0,0,7471,0,2,2,0,6,7471,366
1420,colorstoggle,59950,1,1,2,102.589,fieldSmooth,2,0,1.9,1,1.1,0,0,9611,0,2,2,0,4,9610,411
1420,colorstoggle,59951,1,2,3,102.589,fieldSmooth,2,0,1.9,1,1.1,0,7187,0,0,1,1,0,4,7187,420
1420,colorstoggle,59952,1,3,4,102.589,fieldSmooth,2,0,1.9,1,1.1,0,0,8266,0,2,2,0,3,8266,420
1420,colorstoggle,59953,1,2,5,102.589,fieldSmooth,1,0.098716,0,0,1.1,1,0,4062,0,2,2,1,5,4062,408
1420,colorstoggle,59954,1,3,6,102.589,fieldSmooth,1,0.098716,0,0,1.1,0,4090,0,0,1,1,0,3,4090,405
1420,colorstoggle,59955,1,4,7,102.589,fieldSmooth,2,0,1.9,1,1.1,1,7114,0,0,1,1,1,5,7114,473
1420,colorstoggle,59956,1,4,8,102.589,fieldSmooth,1,0.098716,0,0,1.1,0,4686,0,0,1,1,0,2,4686,421
1420,colorstoggle,59957,2,1,9,419.935,fieldSmooth,2,0,1.9,1,1.1,0,0,8787,0,2,2,0,2,8787,419
1420,colorstoggle,59958,2,2,10,419.935,fieldSmooth,2,0,1.9,1,1.1,0,15830,0,0,1,1,0,6,15830,402
1420,colorstoggle,59959,2,1,11,419.935,fieldSmooth,1,0.098716,0,0,1.1,0,0,6777,0,2,2,0,4,6777,411
1420,colorstoggle,59960,2,2,12,419.935,fieldSmooth,1,0.098716,0,0,1.1,0,0,6199,0,2,2,0,4,6199,419
1420,colorstoggle,59961,2,3,13,419.935,fieldSmooth,2,0,1.9,1,1.1,0,0,5898,0,2,2,0,6,5898,405
1420,colorstoggle,59962,2,4,14,419.935,fieldSmooth,2,0,1.9,1,1.1,0,0,1996,0,2,2,0,6,1996,407
1420,colorstoggle,59963,2,3,15,419.935,fieldSmooth,1,0.098716,0,0,1.1,1,17168,0,0,1,1,1,4,17168,406
1420,colorstoggle,59964,2,4,16,419.935,fieldSmooth,1,0.098716,0,0,1.1,0,0,7572,0,2,2,0,4,7572,428
1420,colorstoggle,59965,3,1,17,102.589,fieldSmooth,2,0,1.9,1,1.1,1,0,3945,0,2,2,1,5,3945,432
1420,colorstoggle,59966,3,2,18,102.589,fieldSmooth,2,0,1.9,1,1.1,1,0,5338,0,2,2,1,3,5338,410
1420,colorstoggle,59967,3,3,19,102.589,fieldSmooth,2,0,1.9,1,1.1,0,0,3966,0,2,2,0,2,3966,421
1420,colorstoggle,59968,3,1,20,102.589,fieldSmooth,1,0.098716,0,0,1.1,0,0,3590,0,2,2,0,5,3590,399
1420,colorstoggle,59969,3,2,21,102.589,fieldSmooth,1,0.098716,0,0,1.1,0,5698,0,0,1,1,0,1,5698,403
1420,colorstoggle,59970,3,3,22,102.589,fieldSmooth,1,0.098716,0,0,1.1,1,4444,0,0,1,1,1,3,4444,406
1420,colorstoggle,59971,3,4,23,102.589,fieldSmooth,1,0.098716,0,0,1.1,0,0,5672,0,2,2,0,1,5672,411
1420,colorstoggle,59972,3,4,24,102.589,fieldSmooth,2,0,1.9,1,1.1,0,6625,0,0,1,1,0,2,6625,473
1420,colorstoggle,59973,4,1,25,419.935,fieldSmooth,2,0,1.9,1,1.1,0,7619,0,0,1,1,0,3,7619,416
1420,colorstoggle,59974,4,2,26,419.935,fieldSmooth,2,0,1.9,1,1.1,0,0,2783,0,2,2,0,4,2783,404
1420,colorstoggle,59975,4,1,27,419.935,fieldSmooth,1,0.098716,0,0,1.1,1,2923,0,0,1,1,1,4,2923,400
1420,colorstoggle,59976,4,2,28,419.935,fieldSmooth,1,0.098716,0,0,1.1,0,2649,0,0,1,1,0,2,2649,455
1420,colorstoggle,59977,4,3,29,419.935,fieldSmooth,1,0.098716,0,0,1.1,0,0,3025,0,2,2,0,6,3025,430
1420,colorstoggle,59978,4,3,30,419.935,fieldSmooth,2,0,1.9,1,1.1,0,0,2628,0,2,2,0,6,2628,430
1420,colorstoggle,59979,4,4,31,419.935,fieldSmooth,1,0.098716,0,0,1.1,0,3828,0,0,1,1,0,6,3828,400
1420,colorstoggle,59980,4,4,32,419.935,fieldSmooth,2,0,1.9,1,1.1,0,4521,0,0,1,1,0,5,4521,401
1421,colorstoggle,60141,1,1,1,419.935,fieldSmooth,2,0,1.9,1,1.1,0,65294,0,0,1,1,0,3,65294,1483
1421,colorstoggle,60142,1,2,2,419.935,fieldSmooth,2,0,1.9,1,1.1,1,0,108332,0,2,2,1,2,108332,885
1421,colorstoggle,60143,1,1,3,419.935,fieldSmooth,1,0.098716,0,0,1.1,1,13310,0,0,1,1,1,5,13310,876
1421,colorstoggle,60144,1,2,4,419.935,fieldSmooth,1,0.098716,0,0,1.1,1,57387,0,0,1,1,1,4,57387,845
1421,colorstoggle,60145,1,3,5,419.935,fieldSmooth,2,0,1.9,1,1.1,0,0,35489,0,2,2,0,3,35489,861
1421,colorstoggle,60146,1,3,6,419.935,fieldSmooth,1,0.098716,0,0,1.1,1,6521,0,0,1,1,1,5,6521,802
1421,colorstoggle,60147,1,4,7,419.935,fieldSmooth,2,0,1.9,1,1.1,1,18166,0,0,1,1,1,1,18166,770
1421,colorstoggle,60148,1,4,8,419.935,fieldSmooth,1,0.098716,0,0,1.1,1,19354,0,0,1,1,1,6,19354,810
1421,colorstoggle,60149,2,1,9,102.589,fieldSmooth,1,0.098716,0,0,1.1,1,0,1058181,0,2,2,1,6,1058181,877
1421,colorstoggle,60150,2,2,10,102.589,fieldSmooth,1,0.098716,0,0,1.1,1,5030,0,0,1,1,1,4,5030,744
1421,colorstoggle,60151,2,1,11,102.589,fieldSmooth,2,0,1.9,1,1.1,1,0,8529,0,2,2,1,5,8529,795
1421,colorstoggle,60152,2,3,12,102.589,fieldSmooth,1,0.098716,0,0,1.1,1,14250,0,0,1,1,1,6,14249,745
1421,colorstoggle,60153,2,2,13,102.589,fieldSmooth,2,0,1.9,1,1.1,1,0,46801,0,2,2,1,4,46801,740
1421,colorstoggle,60154,2,4,14,102.589,fieldSmooth,1,0.098716,0,0,1.1,1,115814,0,0,1,1,1,2,115814,770
1421,colorstoggle,60155,2,3,15,102.589,fieldSmooth,2,0,1.9,1,1.1,1,29858,0,0,1,1,1,2,29858,745
1421,colorstoggle,60156,2,4,16,102.589,fieldSmooth,2,0,1.9,1,1.1,1,0,8659,0,2,2,1,1,8659,747
1421,colorstoggle,60157,3,1,17,102.589,fieldSmooth,1,0.098716,0,0,1.1,1,14819,0,0,1,1,1,6,14819,779
1421,colorstoggle,60158,3,2,18,102.589,fieldSmooth,1,0.098716,0,0,1.1,0,90991,0,0,1,1,0,2,90991,771
1421,colorstoggle,60159,3,1,19,102.589,fieldSmooth,2,0,1.9,1,1.1,0,261459,0,0,1,1,0,6,261459,771
1421,colorstoggle,60160,3,2,20,102.589,fieldSmooth,2,0,1.9,1,1.1,1,15644,0,0,1,1,1,3,15643,798
1421,colorstoggle,60161,3,3,21,102.589,fieldSmooth,1,0.098716,0,0,1.1,0,0,9133,0,2,2,0,5,9133,886
1421,colorstoggle,60162,3,4,22,102.589,fieldSmooth,1,0.098716,0,0,1.1,1,52082,0,0,1,1,1,3,52082,724
1421,colorstoggle,60163,3,3,23,102.589,fieldSmooth,2,0,1.9,1,1.1,1,8768,0,0,1,1,1,3,8767,884
1421,colorstoggle,60164,3,4,24,102.589,fieldSmooth,2,0,1.9,1,1.1,1,0,15329,0,2,2,1,5,15329,736
1421,colorstoggle,60165,4,1,25,419.935,fieldSmooth,1,0.098716,0,0,1.1,1,23367,0,0,1,1,1,2,23367,723
1421,colorstoggle,60166,4,1,26,419.935,fieldSmooth,2,0,1.9,1,1.1,1,0,12751,0,2,2,1,6,12751,727
1421,colorstoggle,60167,4,2,27,419.935,fieldSmooth,2,0,1.9,1,1.1,1,0,18452,0,2,2,1,3,18452,741
1421,colorstoggle,60168,4,2,28,419.935,fieldSmooth,1,0.098716,0,0,1.1,1,0,26690,0,2,2,1,1,26690,728
1421,colorstoggle,60169,4,3,29,419.935,fieldSmooth,1,0.098716,0,0,1.1,1,14520,0,0,1,1,1,1,14519,809
1421,colorstoggle,60170,4,4,30,419.935,fieldSmooth,1,0.098716,0,0,1.1,1,14182,0,0,1,1,1,4,14182,796
1421,colorstoggle,60171,4,3,31,419.935,fieldSmooth,2,0,1.9,1,1.1,0,45084,0,0,1,1,0,1,45084,732
1421,colorstoggle,60172,4,4,32,419.935,fieldSmooth,2,0,1.9,1,1.1,0,0,32908,0,2,2,0,4,32908,807
1423,colorstoggle,60045,1,1,1,419.935,fieldSmooth,2,0,1.9,1,1.1,0,5747,8133,3,2,1,0,4,14376,1781
1423,colorstoggle,60046,1,1,2,419.935,fieldSmooth,1,0.098716,0,0,1.1,0,17615,8221,7,2,1,0,3,26856,497
1423,colorstoggle,60047,1,2,3,419.935,fieldSmooth,1,0.098716,0,0,1.1,1,4339,513,2,1,1,1,6,5158,486
1423,colorstoggle,60048,1,2,4,419.935,fieldSmooth,2,0,1.9,1,1.1,1,8600,6629,2,1,1,1,3,15509,486
1423,colorstoggle,60049,1,3,5,419.935,fieldSmooth,1,0.098716,0,0,1.1,0,9753,9269,3,2,1,0,5,19459,499
1423,colorstoggle,60050,1,4,6,419.935,fieldSmooth,1,0.098716,0,0,1.1,0,18514,2450,2,1,1,0,4,21261,485
1423,colorstoggle,60051,1,3,7,419.935,fieldSmooth,2,0,1.9,1,1.1,1,7732,7096,2,1,1,1,6,15135,481
1423,colorstoggle,60052,1,4,8,419.935,fieldSmooth,2,0,1.9,1,1.1,0,13053,6985,2,1,1,0,3,20316,488
1423,colorstoggle,60053,2,1,9,102.589,fieldSmooth,1,0.098716,0,0,1.1,1,16135,9372,3,2,1,1,6,25950,572
1423,colorstoggle,60054,2,1,10,102.589,fieldSmooth,2,0,1.9,1,1.1,1,12215,6168,2,1,1,1,4,18662,479
1423,colorstoggle,60055,2,2,11,102.589,fieldSmooth,2,0,1.9,1,1.1,1,3281,10528,1,2,1,1,6,13967,477
1423,colorstoggle,60056,2,2,12,102.589,fieldSmooth,1,0.098716,0,0,1.1,1,8712,2674,2,2,2,1,1,11659,480
1423,colorstoggle,60057,2,3,13,102.589,fieldSmooth,1,0.098716,0,0,1.1,1,14414,12337,5,1,2,1,3,27445,504
1423,colorstoggle,60058,2,4,14,102.589,fieldSmooth,1,0.098716,0,0,1.1,1,9649,6225,4,1,1,1,4,16628,552
1423,colorstoggle,60059,2,3,15,102.589,fieldSmooth,2,0,1.9,1,1.1,0,12517,5951,1,1,2,0,6,18655,692
1423,colorstoggle,60060,2,4,16,102.589,fieldSmooth,2,0,1.9,1,1.1,0,16610,8624,3,2,1,0,3,25836,682
1423,colorstoggle,60061,3,1,17,102.589,fieldSmooth,2,0,1.9,1,1.1,0,30156,17786,5,1,2,0,6,48762,686
1423,colorstoggle,60062,3,1,18,102.589,fieldSmooth,1,0.098716,0,0,1.1,1,11410,3376,1,2,1,1,4,14925,491
1423,colorstoggle,60063,3,2,19,102.589,fieldSmooth,2,0,1.9,1,1.1,1,2287,5210,1,2,1,1,5,7643,479
1423,colorstoggle,60064,3,3,20,102.589,fieldSmooth,2,0,1.9,1,1.1,1,7978,7204,2,1,1,1,2,15476,475
1423,colorstoggle,60065,3,4,21,102.589,fieldSmooth,2,0,1.9,1,1.1,1,17127,7676,4,1,1,1,2,25385,469
1423,colorstoggle,60066,3,2,22,102.589,fieldSmooth,1,0.098716,0,0,1.1,1,12919,4334,2,1,1,1,1,17529,476
1423,colorstoggle,60067,3,3,23,102.589,fieldSmooth,1,0.098716,0,0,1.1,0,9006,9193,2,1,1,0,3,18468,483
1423,colorstoggle,60068,3,4,24,102.589,fieldSmooth,1,0.098716,0,0,1.1,1,9186,6552,2,1,1,1,6,16022,474
1423,colorstoggle,60069,4,1,25,419.935,fieldSmooth,1,0.098716,0,0,1.1,0,5966,3003,1,1,2,0,4,9114,503
1423,colorstoggle,60070,4,1,26,419.935,fieldSmooth,2,0,1.9,1,1.1,0,8539,794,2,1,1,0,3,9599,485
1423,colorstoggle,60071,4,2,27,419.935,fieldSmooth,1,0.098716,0,0,1.1,1,2754,511,1,2,1,1,2,3403,500
1423,colorstoggle,60072,4,2,28,419.935,fieldSmooth,2,0,1.9,1,1.1,1,5562,4682,1,1,2,1,3,10373,487
1423,colorstoggle,60073,4,3,29,419.935,fieldSmooth,2,0,1.9,1,1.1,0,9970,520,1,2,1,0,6,10628,471
1423,colorstoggle,60074,4,3,30,419.935,fieldSmooth,1,0.098716,0,0,1.1,0,5770,1601,2,2,2,0,2,7640,475
1423,colorstoggle,60075,4,4,31,419.935,fieldSmooth,2,0,1.9,1,1.1,1,2329,2461,1,1,2,1,3,4941,477
1423,colorstoggle,60076,4,4,32,419.935,fieldSmooth,1,0.098716,0,0,1.1,1,7131,852,3,2,1,1,3,8419,485
1425,colorstoggle,60077,1,1,1,419.935,fieldSmooth,2,0,1.9,1,1.1,1,0,6304,0,2,2,1,3,6304,6304
1425,colorstoggle,60078,1,1,2,419.935,fieldSmooth,1,0.098716,0,0,1.1,1,5595,9747,1,2,1,1,3,15898,887
1425,colorstoggle,60079,1,2,3,419.935,fieldSmooth,1,0.098716,0,0,1.1,1,7868,2943,1,2,1,1,5,11329,1303
1425,colorstoggle,60080,1,2,4,419.935,fieldSmooth,2,0,1.9,1,1.1,0,49206,3375,1,2,1,0,6,52905,684
1425,colorstoggle,60081,1,3,5,419.935,fieldSmooth,2,0,1.9,1,1.1,0,17526,2588,2,1,1,0,4,20877,533
1425,colorstoggle,60082,1,3,6,419.935,fieldSmooth,1,0.098716,0,0,1.1,0,12363,0,0,1,1,0,4,12363,809
1425,colorstoggle,60083,1,4,7,419.935,fieldSmooth,1,0.098716,0,0,1.1,1,14785,5271,2,1,1,1,5,20918,672
1425,colorstoggle,60084,1,4,8,419.935,fieldSmooth,2,0,1.9,1,1.1,1,30966,3608,1,2,1,1,1,35024,985
1425,colorstoggle,60085,2,1,9,102.589,fieldSmooth,1,0.098716,0,0,1.1,1,11936,6126,1,1,2,1,6,18588,1049
1425,colorstoggle,60086,2,1,10,102.589,fieldSmooth,2,0,1.9,1,1.1,0,5920,4444,1,2,1,0,6,10815,504
1425,colorstoggle,60087,2,2,11,102.589,fieldSmooth,1,0.098716,0,0,1.1,1,11434,3512,1,2,1,1,5,15456,853
1425,colorstoggle,60088,2,2,12,102.589,fieldSmooth,2,0,1.9,1,1.1,0,10927,6113,2,1,1,0,6,17724,677
1425,colorstoggle,60089,2,3,13,102.589,fieldSmooth,2,0,1.9,1,1.1,0,18566,9338,2,1,1,0,1,28496,664
1425,colorstoggle,60090,2,3,14,102.589,fieldSmooth,1,0.098716,0,0,1.1,0,14488,0,0,1,1,0,5,14488,892
1425,colorstoggle,60091,2,4,15,102.589,fieldSmooth,2,0,1.9,1,1.1,1,8009,6045,1,1,2,1,3,14484,773
1425,colorstoggle,60092,2,4,16,102.589,fieldSmooth,1,0.098716,0,0,1.1,1,5920,0,0,1,1,1,4,5920,735
1425,colorstoggle,60093,3,1,17,419.935,fieldSmooth,2,0,1.9,1,1.1,1,7315,4348,1,1,2,1,6,12099,922
1425,colorstoggle,60094,3,2,18,419.935,fieldSmooth,2,0,1.9,1,1.1,1,9696,7493,1,1,2,1,3,17533,779
1425,colorstoggle,60095,3,1,19,419.935,fieldSmooth,1,0.098716,0,0,1.1,1,7121,0,0,1,1,1,6,7121,533
1425,colorstoggle,60096,3,2,20,419.935,fieldSmooth,1,0.098716,0,0,1.1,1,5797,0,0,1,1,1,4,5797,775
1425,colorstoggle,60097,3,3,21,419.935,fieldSmooth,2,0,1.9,1,1.1,0,10669,9731,1,2,1,0,3,20928,800
1425,colorstoggle,60098,3,3,22,419.935,fieldSmooth,1,0.098716,0,0,1.1,1,16260,5145,1,2,1,1,6,21895,937
1425,colorstoggle,60099,3,4,23,419.935,fieldSmooth,1,0.098716,0,0,1.1,0,11655,18737,1,1,2,0,6,30717,848
1425,colorstoggle,60100,3,4,24,419.935,fieldSmooth,2,0,1.9,1,1.1,1,5882,9281,1,1,2,1,2,15413,711
1425,colorstoggle,60101,4,1,25,102.589,fieldSmooth,2,0,1.9,1,1.1,1,7917,3089,1,2,1,1,2,11442,503
1425,colorstoggle,60102,4,1,26,102.589,fieldSmooth,1,0.098716,0,0,1.1,1,4279,4913,1,2,1,1,6,9879,773
1425,colorstoggle,60103,4,2,27,102.589,fieldSmooth,1,0.098716,0,0,1.1,1,7298,10847,1,1,2,1,3,18561,753
1425,colorstoggle,60104,4,3,28,102.589,fieldSmooth,1,0.098716,0,0,1.1,1,7917,3177,1,2,1,1,1,11532,947
1425,colorstoggle,60105,4,2,29,102.589,fieldSmooth,2,0,1.9,1,1.1,0,11489,3199,1,2,1,0,2,15213,813
1425,colorstoggle,60106,4,3,30,102.589,fieldSmooth,2,0,1.9,1,1.1,0,15713,3401,1,2,1,0,1,19641,556
1425,colorstoggle,60107,4,4,31,102.589,fieldSmooth,2,0,1.9,1,1.1,1,6110,0,0,1,1,1,1,6110,831
1425,colorstoggle,60108,4,4,32,102.589,fieldSmooth,1,0.098716,0,0,1.1,1,8398,2602,2,1,1,1,2,11529,552
1426,colorstoggle,60173,1,1,1,102.589,fieldSmooth,2,0,1.9,1,1.1,1,52065,0,0,1,1,1,5,52064,1926
1426,colorstoggle,60174,1,1,2,102.589,fieldSmooth,1,0.098716,0,0,1.1,1,24136,0,0,1,1,1,2,24136,560
1426,colorstoggle,60175,1,2,3,102.589,fieldSmooth,2,0,1.9,1,1.1,1,13889,0,0,1,1,1,6,13888,673
1426,colorstoggle,60176,1,3,4,102.589,fieldSmooth,2,0,1.9,1,1.1,0,25202,0,0,1,1,0,4,25202,575
1426,colorstoggle,60177,1,2,5,102.589,fieldSmooth,1,0.098716,0,0,1.1,0,0,8842,0,2,2,0,1,8842,795
1426,colorstoggle,60178,1,3,6,102.589,fieldSmooth,1,0.098716,0,0,1.1,0,0,20960,0,2,2,0,6,20959,492
1426,colorstoggle,60179,1,4,7,102.589,fieldSmooth,1,0.098716,0,0,1.1,0,54344,0,0,1,1,0,6,54344,1369
1426,colorstoggle,60180,1,4,8,102.589,fieldSmooth,2,0,1.9,1,1.1,1,0,16215,0,2,2,1,5,16215,1325
1426,colorstoggle,60181,2,1,9,102.589,fieldSmooth,1,0.098716,0,0,1.1,1,0,35894,0,2,2,1,4,35894,533
1426,colorstoggle,60182,2,2,10,102.589,fieldSmooth,1,0.098716,0,0,1.1,1,19403,0,0,1,1,1,3,19403,471
1426,colorstoggle,60183,2,1,11,102.589,fieldSmooth,2,0,1.9,1,1.1,1,0,5019,0,2,2,1,4,5019,955
1426,colorstoggle,60184,2,3,12,102.589,fieldSmooth,1,0.098716,0,0,1.1,1,0,14689,0,2,2,1,1,14689,642
1426,colorstoggle,60185,2,2,13,102.589,fieldSmooth,2,0,1.9,1,1.1,0,16758,0,0,1,1,0,6,16758,458
1426,colorstoggle,60186,2,3,14,102.589,fieldSmooth,2,0,1.9,1,1.1,0,11936,0,0,1,1,0,1,11936,583
1426,colorstoggle,60187,2,4,15,102.589,fieldSmooth,1,0.098716,0,0,1.1,1,0,6741,0,2,2,1,6,6741,953
1426,colorstoggle,60188,2,4,16,102.589,fieldSmooth,2,0,1.9,1,1.1,1,6599,0,0,1,1,1,1,6599,1157
1426,colorstoggle,60189,3,1,17,419.935,fieldSmooth,1,0.098716,0,0,1.1,1,0,72803,0,2,2,1,5,72803,433
1426,colorstoggle,60190,3,2,18,419.935,fieldSmooth,1,0.098716,0,0,1.1,0,0,14666,0,2,2,0,3,14666,1411
1426,colorstoggle,60191,3,1,19,419.935,fieldSmooth,2,0,1.9,1,1.1,1,60543,0,0,1,1,1,3,60543,548
1426,colorstoggle,60192,3,2,20,419.935,fieldSmooth,2,0,1.9,1,1.1,1,0,23085,0,2,2,1,4,23085,1665
1426,colorstoggle,60193,3,3,21,419.935,fieldSmooth,2,0,1.9,1,1.1,1,23364,0,0,1,1,1,1,23363,1026
1426,colorstoggle,60194,3,3,22,419.935,fieldSmooth,1,0.098716,0,0,1.1,1,6147,0,0,1,1,1,1,6146,469
1426,colorstoggle,60195,3,4,23,419.935,fieldSmooth,1,0.098716,0,0,1.1,0,0,41092,0,2,2,0,3,41092,994
1426,colorstoggle,60196,3,4,24,419.935,fieldSmooth,2,0,1.9,1,1.1,0,0,7107,0,2,2,0,3,7107,486
1426,colorstoggle,60197,4,1,25,419.935,fieldSmooth,2,0,1.9,1,1.1,0,11612,0,0,1,1,0,1,11612,454
1426,colorstoggle,60198,4,1,26,419.935,fieldSmooth,1,0.098716,0,0,1.1,1,9530,0,0,1,1,1,2,9530,470
1426,colorstoggle,60199,4,2,27,419.935,fieldSmooth,2,0,1.9,1,1.1,0,0,11547,0,2,2,0,3,11547,534
1426,colorstoggle,60200,4,3,28,419.935,fieldSmooth,2,0,1.9,1,1.1,0,0,55958,0,2,2,0,6,55958,417
1426,colorstoggle,60201,4,2,29,419.935,fieldSmooth,1,0.098716,0,0,1.1,1,0,16716,0,2,2,1,4,16716,537
1426,colorstoggle,60202,4,3,30,419.935,fieldSmooth,1,0.098716,0,0,1.1,1,0,23821,0,2,2,1,1,23821,434
1426,colorstoggle,60203,4,4,31,419.935,fieldSmooth,1,0.098716,0,0,1.1,1,0,38770,0,2,2,1,4,38770,496
1426,colorstoggle,60204,4,4,32,419.935,fieldSmooth,2,0,1.9,1,1.1,1,25843,0,0,1,1,1,1,25843,422
1428,colorstoggle,60301,1,1,1,102.589,fieldSmooth,1,0.098716,0,0,1.1,0,0,76025,0,2,2,0,4,76025,1166
1428,colorstoggle,60302,1,2,2,102.589,fieldSmooth,1,0.098716,0,0,1.1,1,35264,38404,6,1,1,1,4,74359,680
1428,colorstoggle,60303,1,3,3,102.589,fieldSmooth,1,0.098716,0,0,1.1,1,4787,9877,1,2,1,1,5,14780,510
1428,colorstoggle,60304,1,1,4,102.589,fieldSmooth,2,0,1.9,1,1.1,1,14698,28914,2,2,2,1,4,43808,525
1428,colorstoggle,60305,1,4,5,102.589,fieldSmooth,1,0.098716,0,0,1.1,1,10130,21198,1,2,1,1,6,31543,515
1428,colorstoggle,60306,1,2,6,102.589,fieldSmooth,2,0,1.9,1,1.1,1,19424,25527,4,2,2,1,1,45336,583
1428,colorstoggle,60307,1,3,7,102.589,fieldSmooth,2,0,1.9,1,1.1,1,9923,16828,1,1,2,1,5,26845,580
1428,colorstoggle,60308,1,4,8,102.589,fieldSmooth,2,0,1.9,1,1.1,1,21387,15783,4,1,1,1,3,37714,463
1428,colorstoggle,60309,2,1,9,419.935,fieldSmooth,1,0.098716,0,0,1.1,1,10239,0,0,1,1,1,4,10238,542
1428,colorstoggle,60310,2,1,10,419.935,fieldSmooth,2,0,1.9,1,1.1,1,6981,6679,1,1,2,1,3,13752,430
1428,colorstoggle,60311,2,2,11,419.935,fieldSmooth,1,0.098716,0,0,1.1,1,4908,0,0,1,1,1,4,4908,481
1428,colorstoggle,60312,2,2,12,419.935,fieldSmooth,2,0,1.9,1,1.1,1,0,7314,0,2,2,1,5,7314,590
1428,colorstoggle,60313,2,3,13,419.935,fieldSmooth,2,0,1.9,1,1.1,1,17328,33850,2,2,2,1,3,51470,510
1428,colorstoggle,60314,2,3,14,419.935,fieldSmooth,1,0.098716,0,0,1.1,1,23073,4066,2,1,1,1,1,27383,468
1428,colorstoggle,60315,2,4,15,419.935,fieldSmooth,2,0,1.9,1,1.1,1,14690,46752,2,2,2,1,2,61659,494
1428,colorstoggle,60316,2,4,16,419.935,fieldSmooth,1,0.098716,0,0,1.1,1,6488,0,0,1,1,1,4,6488,446
1428,colorstoggle,60317,3,1,17,419.935,fieldSmooth,2,0,1.9,1,1.1,1,5711,14638,1,1,2,1,2,20427,519
1428,colorstoggle,60318,3,1,18,419.935,fieldSmooth,1,0.098716,0,0,1.1,1,35642,39255,4,1,1,1,4,75385,474
1428,colorstoggle,60319,3,2,19,419.935,fieldSmooth,1,0.098716,0,0,1.1,1,4131,5801,1,2,1,1,4,10104,511
1428,colorstoggle,60320,3,2,20,419.935,fieldSmooth,2,0,1.9,1,1.1,1,58441,2352,2,1,1,1,5,60963,460
1428,colorstoggle,60321,3,3,21,419.935,fieldSmooth,2,0,1.9,1,1.1,1,0,4167,0,2,2,1,1,4167,436
1428,colorstoggle,60322,3,3,22,419.935,fieldSmooth,1,0.098716,0,0,1.1,1,15672,3376,5,1,2,1,6,19652,437
1428,colorstoggle,60323,3,4,23,419.935,fieldSmooth,1,0.098716,0,0,1.1,1,3651,13650,1,2,1,1,1,17386,500
1428,colorstoggle,60324,3,4,24,419.935,fieldSmooth,2,0,1.9,1,1.1,1,0,7090,0,2,2,1,3,7090,491
1428,colorstoggle,60325,4,1,25,102.589,fieldSmooth,1,0.098716,0,0,1.1,0,111399,82030,4,2,2,0,2,193913,527
1428,colorstoggle,60326,4,2,26,102.589,fieldSmooth,1,0.098716,0,0,1.1,1,4282,15076,1,1,2,1,2,19435,470
1428,colorstoggle,60327,4,1,27,102.589,fieldSmooth,2,0,1.9,1,1.1,1,34256,8989,2,2,2,1,2,43448,460
1428,colorstoggle,60328,4,2,28,102.589,fieldSmooth,2,0,1.9,1,1.1,1,39710,19594,2,2,2,1,3,59564,526
1428,colorstoggle,60329,4,3,29,102.589,fieldSmooth,1,0.098716,0,0,1.1,1,8235,16650,2,1,1,1,3,25095,453
1428,colorstoggle,60330,4,4,30,102.589,fieldSmooth,1,0.098716,0,0,1.1,1,6762,0,0,1,1,1,4,6762,614
1428,colorstoggle,60331,4,3,31,102.589,fieldSmooth,2,0,1.9,1,1.1,1,29466,25879,3,2,1,1,1,55812,434
1428,colorstoggle,60332,4,4,32,102.589,fieldSmooth,2,0,1.9,1,1.1,1,8972,11218,1,1,2,1,4,20270,514
1429,colorstoggle,60333,1,1,1,419.935,fieldSmooth,2,0,1.9,1,1.1,0,477922,273115,7,1,2,0,6,753215,2506
1429,colorstoggle,60334,1,2,2,419.935,fieldSmooth,2,0,1.9,1,1.1,1,33065,7937,1,1,2,1,1,41300,688
1429,colorstoggle,60335,1,3,3,419.935,fieldSmooth,2,0,1.9,1,1.1,1,40975,11918,2,1,1,1,6,53474,542
1429,colorstoggle,60336,1,1,4,419.935,fieldSmooth,1,0.098716,0,0,1.1,1,80830,12161,2,1,1,1,1,93592,563
1429,colorstoggle,60337,1,2,5,419.935,fieldSmooth,1,0.098716,0,0,1.1,1,17493,0,0,1,1,1,6,17493,540
1429,colorstoggle,60338,1,4,6,419.935,fieldSmooth,2,0,1.9,1,1.1,1,36425,26535,1,2,1,1,3,63259,537
1429,colorstoggle,60339,1,3,7,419.935,fieldSmooth,1,0.098716,0,0,1.1,1,84886,12360,1,2,1,1,2,97549,574
1429,colorstoggle,60340,1,4,8,419.935,fieldSmooth,1,0.098716,0,0,1.1,1,0,36336,0,2,2,1,4,36336,554
1429,colorstoggle,60341,2,1,9,102.589,fieldSmooth,2,0,1.9,1,1.1,1,0,15227,0,2,2,1,5,15227,593
1429,colorstoggle,60342,2,2,10,102.589,fieldSmooth,2,0,1.9,1,1.1,1,164076,30260,1,2,1,1,3,194632,544
1429,colorstoggle,60343,2,1,11,102.589,fieldSmooth,1,0.098716,0,0,1.1,1,6898,0,0,1,1,1,4,6898,546
1429,colorstoggle,60344,2,2,12,102.589,fieldSmooth,1,0.098716,0,0,1.1,1,40558,24660,2,2,2,1,3,65828,548
1429,colorstoggle,60345,2,3,13,102.589,fieldSmooth,1,0.098716,0,0,1.1,1,7695,28726,1,2,1,1,3,36719,540
1429,colorstoggle,60346,2,3,14,102.589,fieldSmooth,2,0,1.9,1,1.1,1,128526,92559,3,1,2,1,6,222004,543
1429,colorstoggle,60347,2,4,15,102.589,fieldSmooth,1,0.098716,0,0,1.1,1,120414,92315,3,2,1,1,4,213604,555
1429,colorstoggle,60348,2,4,16,102.589,fieldSmooth,2,0,1.9,1,1.1,1,0,11039,0,2,2,1,1,11039,620
1429,colorstoggle,60349,3,1,17,102.589,fieldSmooth,1,0.098716,0,0,1.1,0,16862,22461,1,2,1,0,3,39625,562
1429,colorstoggle,60350,3,1,18,102.589,fieldSmooth,2,0,1.9,1,1.1,0,8146,11382,1,1,2,0,6,19835,545
1429,colorstoggle,60351,3,2,19,102.589,fieldSmooth,1,0.098716,0,0,1.1,0,19609,15200,3,1,2,0,4,35692,535
1429,colorstoggle,60352,3,2,20,102.589,fieldSmooth,2,0,1.9,1,1.1,0,9262,9017,1,2,1,0,4,18588,547
1429,colorstoggle,60353,3,3,21,102.589,fieldSmooth,2,0,1.9,1,1.1,1,0,3071,0,2,2,1,3,3071,558
1429,colorstoggle,60354,3,3,22,102.589,fieldSmooth,1,0.098716,0,0,1.1,0,0,11337,0,2,2,0,6,11337,541
1429,colorstoggle,60355,3,4,23,102.589,fieldSmooth,2,0,1.9,1,1.1,0,9848,7792,1,2,1,0,3,17956,545
1429,colorstoggle,60356,3,4,24,102.589,fieldSmooth,1,0.098716,0,0,1.1,1,6729,18274,1,2,1,1,5,25306,528
1429,colorstoggle,60357,4,1,25,419.935,fieldSmooth,2,0,1.9,1,1.1,1,2883,3877,1,2,1,1,5,7057,590
1429,colorstoggle,60358,4,2,26,419.935,fieldSmooth,2,0,1.9,1,1.1,0,12441,0,0,1,1,0,2,12441,526
1429,colorstoggle,60359,4,1,27,419.935,fieldSmooth,1,0.098716,0,0,1.1,0,0,3580,0,2,2,0,3,3580,548
1429,colorstoggle,60360,4,2,28,419.935,fieldSmooth,1,0.098716,0,0,1.1,0,4590,0,0,1,1,0,3,4590,529
1429,colorstoggle,60361,4,3,29,419.935,fieldSmooth,1,0.098716,0,0,1.1,0,6095,2905,1,2,1,0,6,9302,556
1429,colorstoggle,60362,4,3,30,419.935,fieldSmooth,2,0,1.9,1,1.1,1,11694,2481,1,2,1,1,3,14489,545
1429,colorstoggle,60363,4,4,31,419.935,fieldSmooth,2,0,1.9,1,1.1,0,0,2044,0,2,2,0,1,2044,531
1429,colorstoggle,60364,4,4,32,419.935,fieldSmooth,1,0.098716,0,0,1.1,0,6964,5459,1,1,2,0,6,12724,544
1430,colorstoggle,60269,1,1,1,419.935,fieldSmooth,2,0,1.9,1,1.1,0,31862,0,0,1,1,0,6,31862,780
1430,colorstoggle,60270,1,1,2,419.935,fieldSmooth,1,0.098716,0,0,1.1,1,9683,0,0,1,1,1,4,9683,688
1430,colorstoggle,60271,1,2,3,419.935,fieldSmooth,1,0.098716,0,0,1.1,1,0,24863,0,2,2,1,4,24863,530
1430,colorstoggle,60272,1,2,4,419.935,fieldSmooth,2,0,1.9,1,1.1,0,38545,0,0,1,1,0,4,38545,625
1430,colorstoggle,60273,1,3,5,419.935,fieldSmooth,2,0,1.9,1,1.1,1,0,10280,0,2,2,1,4,10280,602
1430,colorstoggle,60274,1,3,6,419.935,fieldSmooth,1,0.098716,0,0,1.1,1,15355,0,0,1,1,1,5,15354,552
1430,colorstoggle,60275,1,4,7,419.935,fieldSmooth,1,0.098716,0,0,1.1,1,0,11801,0,2,2,1,2,11801,529
1430,colorstoggle,60276,1,4,8,419.935,fieldSmooth,2,0,1.9,1,1.1,0,32091,0,0,1,1,0,3,32090,547
1430,colorstoggle,60277,2,1,9,102.589,fieldSmooth,2,0,1.9,1,1.1,0,35237,0,0,1,1,0,5,35237,534
1430,colorstoggle,60278,2,2,10,102.589,fieldSmooth,2,0,1.9,1,1.1,0,0,14024,0,2,2,0,4,14024,572
1430,colorstoggle,60279,2,1,11,102.589,fieldSmooth,1,0.098716,0,0,1.1,1,19476,0,0,1,1,1,1,19476,563
1430,colorstoggle,60280,2,3,12,102.589,fieldSmooth,2,0,1.9,1,1.1,0,55950,0,0,1,1,0,2,55949,544
1430,colorstoggle,60281,2,4,13,102.589,fieldSmooth,2,0,1.9,1,1.1,0,24529,0,0,1,1,0,4,24529,575
1430,colorstoggle,60282,2,2,14,102.589,fieldSmooth,1,0.098716,0,0,1.1,0,0,15010,0,2,2,0,6,15010,492
1430,colorstoggle,60283,2,3,15,102.589,fieldSmooth,1,0.098716,0,0,1.1,0,0,19089,0,2,2,0,4,19089,561
1430,colorstoggle,60284,2,4,16,102.589,fieldSmooth,1,0.098716,0,0,1.1,1,9735,0,0,1,1,1,1,9735,507
1430,colorstoggle,60285,3,1,17,419.935,fieldSmooth,1,0.098716,0,0,1.1,1,0,20317,0,2,2,1,2,20317,506
1430,colorstoggle,60286,3,1,18,419.935,fieldSmooth,2,0,1.9,1,1.1,0,18559,0,0,1,1,0,4,18559,606
1430,colorstoggle,60287,3,2,19,419.935,fieldSmooth,2,0,1.9,1,1.1,0,17090,0,0,1,1,0,4,17090,516
1430,colorstoggle,60288,3,2,20,419.935,fieldSmooth,1,0.098716,0,0,1.1,0,9136,0,0,1,1,0,6,9136,528
1430,colorstoggle,60289,3,3,21,419.935,fieldSmooth,1,0.098716,0,0,1.1,0,0,29358,0,2,2,0,6,29358,555
1430,colorstoggle,60290,3,4,22,419.935,fieldSmooth,1,0.098716,0,0,1.1,0,0,24104,0,2,2,0,6,24104,539
1430,colorstoggle,60291,3,3,23,419.935,fieldSmooth,2,0,1.9,1,1.1,0,20424,0,0,1,1,0,1,20424,609
1430,colorstoggle,60292,3,4,24,419.935,fieldSmooth,2,0,1.9,1,1.1,0,0,9401,0,2,2,0,4,9401,549
1430,colorstoggle,60293,4,1,25,102.589,fieldSmooth,2,0,1.9,1,1.1,0,0,7949,0,2,2,0,1,7949,489
1430,colorstoggle,60294,4,1,26,102.589,fieldSmooth,1,0.098716,0,0,1.1,1,7474,0,0,1,1,1,4,7474,573
1430,colorstoggle,60295,4,2,27,102.589,fieldSmooth,1,0.098716,0,0,1.1,0,11165,0,0,1,1,0,6,11165,555
1430,colorstoggle,60296,4,3,28,102.589,fieldSmooth,1,0.098716,0,0,1.1,0,0,4960,0,2,2,0,3,4959,555
1430,colorstoggle,60297,4,2,29,102.589,fieldSmooth,2,0,1.9,1,1.1,1,0,6818,0,2,2,1,5,6818,563
1430,colorstoggle,60298,4,3,30,102.589,fieldSmooth,2,0,1.9,1,1.1,0,11647,0,0,1,1,0,2,11647,621
1430,colorstoggle,60299,4,4,31,102.589,fieldSmooth,2,0,1.9,1,1.1,0,4837,0,0,1,1,0,1,4837,570
1430,colorstoggle,60300,4,4,32,102.589,fieldSmooth,1,0.098716,0,0,1.1,0,0,9594,0,2,2,0,5,9594,584
1432,colorstoggle,60237,1,1,1,419.935,fieldSmooth,1,0.098716,0,0,1.1,1,7312,7033,5,2,1,1,3,15473,2954
1432,colorstoggle,60238,1,1,2,419.935,fieldSmooth,2,0,1.9,1,1.1,0,23545,9746,7,2,1,0,2,34887,572
1432,colorstoggle,60239,1,2,3,419.935,fieldSmooth,1,0.098716,0,0,1.1,1,24417,19931,4,1,1,1,6,45306,502
1432,colorstoggle,60240,1,2,4,419.935,fieldSmooth,2,0,1.9,1,1.1,1,11365,10737,5,2,1,1,1,23246,417
1432,colorstoggle,60241,1,3,5,419.935,fieldSmooth,1,0.098716,0,0,1.1,0,10529,6094,4,1,1,0,6,17568,499
1432,colorstoggle,60242,1,3,6,419.935,fieldSmooth,2,0,1.9,1,1.1,0,18578,6324,2,1,1,0,5,25382,428
1432,colorstoggle,60243,1,4,7,419.935,fieldSmooth,1,0.098716,0,0,1.1,1,8159,5202,1,2,1,1,6,13593,430
1432,colorstoggle,60244,1,4,8,419.935,fieldSmooth,2,0,1.9,1,1.1,1,20828,3425,2,1,1,1,1,24718,396
1432,colorstoggle,60245,2,1,9,102.589,fieldSmooth,1,0.098716,0,0,1.1,1,9561,3806,3,2,1,1,5,14062,467
1432,colorstoggle,60246,2,1,10,102.589,fieldSmooth,2,0,1.9,1,1.1,1,11435,3992,5,2,1,1,3,16583,413
1432,colorstoggle,60247,2,2,11,102.589,fieldSmooth,1,0.098716,0,0,1.1,1,6245,1591,1,2,1,1,4,8066,397
1432,colorstoggle,60248,2,2,12,102.589,fieldSmooth,2,0,1.9,1,1.1,1,12904,8166,6,2,2,1,2,22437,423
1432,colorstoggle,60249,2,3,13,102.589,fieldSmooth,2,0,1.9,1,1.1,0,15623,4466,2,1,1,0,3,20537,409
1432,colorstoggle,60250,2,4,14,102.589,fieldSmooth,2,0,1.9,1,1.1,0,10029,6081,2,1,1,0,3,16575,416
1432,colorstoggle,60251,2,3,15,102.589,fieldSmooth,1,0.098716,0,0,1.1,0,5363,5553,2,1,1,0,2,11361,406
1432,colorstoggle,60252,2,4,16,102.589,fieldSmooth,1,0.098716,0,0,1.1,0,23493,5174,4,1,1,0,2,29599,402
1432,colorstoggle,60253,3,1,17,419.935,fieldSmooth,2,0,1.9,1,1.1,0,11616,3152,2,1,1,0,4,15205,425
1432,colorstoggle,60254,3,2,18,419.935,fieldSmooth,2,0,1.9,1,1.1,0,5057,7461,3,2,1,0,2,13207,413
1432,colorstoggle,60255,3,1,19,419.935,fieldSmooth,1,0.098716,0,0,1.1,1,7070,6233,4,1,1,1,3,14207,417
1432,colorstoggle,60256,3,3,20,419.935,fieldSmooth,2,0,1.9,1,1.1,0,8145,2068,1,2,1,0,3,10437,411
1432,colorstoggle,60257,3,2,21,419.935,fieldSmooth,1,0.098716,0,0,1.1,0,9050,7973,2,2,2,0,2,17488,402
1432,colorstoggle,60258,3,4,22,419.935,fieldSmooth,2,0,1.9,1,1.1,1,11260,2262,2,1,1,1,3,13991,402
1432,colorstoggle,60259,3,3,23,419.935,fieldSmooth,1,0.098716,0,0,1.1,1,6272,3019,4,1,1,1,3,10218,424
1432,colorstoggle,60260,3,4,24,419.935,fieldSmooth,1,0.098716,0,0,1.1,1,6395,836,2,1,1,1,5,7685,402
1432,colorstoggle,60261,4,1,25,102.589,fieldSmooth,2,0,1.9,1,1.1,1,9134,3763,4,1,1,1,2,13777,400
1432,colorstoggle,60262,4,2,26,102.589,fieldSmooth,2,0,1.9,1,1.1,0,8994,4115,3,2,1,0,5,13796,409
1432,colorstoggle,60263,4,1,27,102.589,fieldSmooth,1,0.098716,0,0,1.1,0,14188,1454,1,2,1,0,1,15885,417
1432,colorstoggle,60264,4,3,28,102.589,fieldSmooth,2,0,1.9,1,1.1,1,6091,5275,1,2,1,1,3,11599,674
1432,colorstoggle,60265,4,2,29,102.589,fieldSmooth,1,0.098716,0,0,1.1,1,5735,1154,4,1,1,1,5,7885,412
1432,colorstoggle,60266,4,3,30,102.589,fieldSmooth,1,0.098716,0,0,1.1,1,2632,761,1,2,1,1,1,3618,401
1432,colorstoggle,60267,4,4,31,102.589,fieldSmooth,1,0.098716,0,0,1.1,1,4577,1145,1,2,1,1,3,5942,396
1432,colorstoggle,60268,4,4,32,102.589,fieldSmooth,2,0,1.9,1,1.1,0,15024,1481,3,2,1,0,6,17167,408
1433,colorstoggle,60365,1,1,1,102.589,fieldSmooth,2,0,1.9,1,1.1,0,0,26747,0,2,2,0,1,26747,643
1433,colorstoggle,60366,1,2,2,102.589,fieldSmooth,2,0,1.9,1,1.1,1,312730,0,0,1,1,1,6,312730,441
1433,colorstoggle,60367,1,3,3,102.589,fieldSmooth,2,0,1.9,1,1.1,1,0,21904,0,2,2,1,3,21904,537
1433,colorstoggle,60368,1,1,4,102.589,fieldSmooth,1,0.098716,0,0,1.1,1,101519,0,0,1,1,1,2,101519,452
1433,colorstoggle,60369,1,2,5,102.589,fieldSmooth,1,0.098716,0,0,1.1,1,6295,0,0,1,1,1,4,6295,435
1433,colorstoggle,60370,1,3,6,102.589,fieldSmooth,1,0.098716,0,0,1.1,0,0,22361,0,2,2,0,1,22360,484
1433,colorstoggle,60371,1,4,7,102.589,fieldSmooth,2,0,1.9,1,1.1,0,0,216859,0,2,2,0,3,216859,421
1433,colorstoggle,60372,1,4,8,102.589,fieldSmooth,1,0.098716,0,0,1.1,1,0,33350,0,2,2,1,5,33350,438
1433,colorstoggle,60373,2,1,9,419.935,fieldSmooth,1,0.098716,0,0,1.1,1,0,26948,0,2,2,1,3,26948,465
1433,colorstoggle,60374,2,1,10,419.935,fieldSmooth,2,0,1.9,1,1.1,1,0,16282,0,2,2,1,3,16281,537
1433,colorstoggle,60375,2,2,11,419.935,fieldSmooth,1,0.098716,0,0,1.1,1,0,113208,0,2,2,1,4,113208,472
1433,colorstoggle,60376,2,2,12,419.935,fieldSmooth,2,0,1.9,1,1.1,1,53348,0,0,1,1,1,3,53348,439
1433,colorstoggle,60377,2,3,13,419.935,fieldSmooth,1,0.098716,0,0,1.1,1,13782,0,0,1,1,1,1,13782,427
1433,colorstoggle,60378,2,4,14,419.935,fieldSmooth,1,0.098716,0,0,1.1,1,7108,0,0,1,1,1,4,7108,469
1433,colorstoggle,60379,2,3,15,419.935,fieldSmooth,2,0,1.9,1,1.1,0,0,32941,0,2,2,0,3,32941,425
1433,colorstoggle,60380,2,4,16,419.935,fieldSmooth,2,0,1.9,1,1.1,1,0,5042,0,2,2,1,1,5042,515
1433,colorstoggle,60381,3,1,17,102.589,fieldSmooth,2,0,1.9,1,1.1,1,0,15332,0,2,2,1,2,15332,429
1433,colorstoggle,60382,3,1,18,102.589,fieldSmooth,1,0.098716,0,0,1.1,1,20080,0,0,1,1,1,2,20080,431
1433,colorstoggle,60383,3,2,19,102.589,fieldSmooth,2,0,1.9,1,1.1,0,25532,0,0,1,1,0,3,25532,441
1433,colorstoggle,60384,3,2,20,102.589,fieldSmooth,1,0.098716,0,0,1.1,1,0,25794,0,2,2,1,6,25794,424
1433,colorstoggle,60385,3,3,21,102.589,fieldSmooth,1,0.098716,0,0,1.1,1,14758,0,0,1,1,1,6,14758,441
1433,colorstoggle,60386,3,3,22,102.589,fieldSmooth,2,0,1.9,1,1.1,0,0,19566,0,2,2,0,1,19566,429
1433,colorstoggle,60387,3,4,23,102.589,fieldSmooth,2,0,1.9,1,1.1,1,0,18961,0,2,2,1,2,18961,458
1433,colorstoggle,60388,3,4,24,102.589,fieldSmooth,1,0.098716,0,0,1.1,1,0,37340,0,2,2,1,1,37340,428
1433,colorstoggle,60389,4,1,25,419.935,fieldSmooth,2,0,1.9,1,1.1,1,0,5551,0,2,2,1,2,5551,432
1433,colorstoggle,60390,4,1,26,419.935,fieldSmooth,1,0.098716,0,0,1.1,1,37394,0,0,1,1,1,6,37394,441
1433,colorstoggle,60391,4,2,27,419.935,fieldSmooth,2,0,1.9,1,1.1,1,0,10910,0,2,2,1,6,10910,453
1433,colorstoggle,60392,4,2,28,419.935,fieldSmooth,1,0.098716,0,0,1.1,1,8131,0,0,1,1,1,1,8131,470
1433,colorstoggle,60393,4,3,29,419.935,fieldSmooth,1,0.098716,0,0,1.1,1,8665,0,0,1,1,1,1,8665,424
1433,colorstoggle,60394,4,3,30,419.935,fieldSmooth,2,0,1.9,1,1.1,1,77440,0,0,1,1,1,5,77440,528
1433,colorstoggle,60395,4,4,31,419.935,fieldSmooth,2,0,1.9,1,1.1,1,26089,0,0,1,1,1,4,26089,451
1433,colorstoggle,60396,4,4,32,419.935,fieldSmooth,1,0.098716,0,0,1.1,1,21639,0,0,1,1,1,5,21639,502
1434,colorstoggle,60397,1,1,1,102.589,fieldSmooth,1,0.098716,0,0,1.1,1,9388,1141,2,1,1,1,1,10726,967
1434,colorstoggle,60398,1,2,2,102.589,fieldSmooth,1,0.098716,0,0,1.1,1,5339,0,0,1,1,1,6,5339,270
1434,colorstoggle,60399,1,1,3,102.589,fieldSmooth,2,0,1.9,1,1.1,1,10783,12773,3,1,2,1,4,23849,243
1434,colorstoggle,60400,1,2,4,102.589,fieldSmooth,2,0,1.9,1,1.1,1,19455,35048,8,1,1,1,3,55281,259
1434,colorstoggle,60401,1,3,5,102.589,fieldSmooth,1,0.098716,0,0,1.1,1,521292,18250,4,1,1,1,3,539930,224
1434,colorstoggle,60402,1,3,6,102.589,fieldSmooth,2,0,1.9,1,1.1,1,26099,7996,2,1,1,1,2,34288,246
1434,colorstoggle,60403,1,4,7,102.589,fieldSmooth,2,0,1.9,1,1.1,1,12852,6367,2,1,1,1,3,19400,235
1434,colorstoggle,60404,1,4,8,102.589,fieldSmooth,1,0.098716,0,0,1.1,1,5766,5214,2,2,2,1,3,11173,226
1434,colorstoggle,60405,2,1,9,419.935,fieldSmooth,1,0.098716,0,0,1.1,1,7535,8935,2,1,1,1,6,16662,241
1434,colorstoggle,60406,2,1,10,419.935,fieldSmooth,2,0,1.9,1,1.1,1,0,6339,0,2,2,1,5,6339,253
1434,colorstoggle,60407,2,2,11,419.935,fieldSmooth,2,0,1.9,1,1.1,1,10267,3232,2,1,1,1,5,13690,232
1434,colorstoggle,60408,2,2,12,419.935,fieldSmooth,1,0.098716,0,0,1.1,1,10390,5862,2,1,1,1,1,16446,245
1434,colorstoggle,60409,2,3,13,419.935,fieldSmooth,2,0,1.9,1,1.1,0,25395,23015,4,1,1,0,4,48802,233
1434,colorstoggle,60410,2,4,14,419.935,fieldSmooth,2,0,1.9,1,1.1,0,11724,8363,7,2,1,0,4,20777,235
1434,colorstoggle,60411,2,3,15,419.935,fieldSmooth,1,0.098716,0,0,1.1,1,4445,25720,1,2,1,1,3,30266,234
1434,colorstoggle,60412,2,4,16,419.935,fieldSmooth,1,0.098716,0,0,1.1,1,13874,0,0,1,1,1,2,13874,240
1434,colorstoggle,60413,3,1,17,102.589,fieldSmooth,1,0.098716,0,0,1.1,1,33004,12300,2,1,1,1,5,45495,253
1434,colorstoggle,60414,3,2,18,102.589,fieldSmooth,1,0.098716,0,0,1.1,1,7856,6860,1,2,1,1,2,14811,275
1434,colorstoggle,60415,3,3,19,102.589,fieldSmooth,1,0.098716,0,0,1.1,1,41261,27606,5,2,1,1,6,69335,253
1434,colorstoggle,60416,3,1,20,102.589,fieldSmooth,2,0,1.9,1,1.1,1,23526,13317,3,2,1,1,4,37123,236
1434,colorstoggle,60417,3,2,21,102.589,fieldSmooth,2,0,1.9,1,1.1,1,36029,5186,2,1,1,1,4,41405,229
1434,colorstoggle,60418,3,3,22,102.589,fieldSmooth,2,0,1.9,1,1.1,1,8923,0,0,1,1,1,6,8923,233
1434,colorstoggle,60419,3,4,23,102.589,fieldSmooth,1,0.098716,0,0,1.1,1,6266,14336,2,2,2,1,3,20791,242
1434,colorstoggle,60420,3,4,24,102.589,fieldSmooth,2,0,1.9,1,1.1,0,36636,19814,7,2,1,0,1,57129,235
1434,colorstoggle,60421,4,1,25,419.935,fieldSmooth,1,0.098716,0,0,1.1,1,34296,24761,3,2,1,1,5,59349,262
1434,colorstoggle,60422,4,1,26,419.935,fieldSmooth,2,0,1.9,1,1.1,1,6015,7006,1,1,2,1,2,13108,285
1434,colorstoggle,60423,4,2,27,419.935,fieldSmooth,1,0.098716,0,0,1.1,1,35466,0,0,1,1,1,5,35466,237
1434,colorstoggle,60424,4,3,28,419.935,fieldSmooth,1,0.098716,0,0,1.1,1,4019,6514,2,2,2,1,2,10740,231
1434,colorstoggle,60425,4,4,29,419.935,fieldSmooth,1,0.098716,0,0,1.1,1,0,5759,0,2,2,1,2,5759,249
1434,colorstoggle,60426,4,2,30,419.935,fieldSmooth,2,0,1.9,1,1.1,1,5185,0,0,1,1,1,2,5185,250
1434,colorstoggle,60427,4,3,31,419.935,fieldSmooth,2,0,1.9,1,1.1,1,10662,7859,3,1,2,1,3,18802,230
1434,colorstoggle,60428,4,4,32,419.935,fieldSmooth,2,0,1.9,1,1.1,1,9739,26331,4,2,2,1,5,36444,238
1436,colorstoggle,60205,1,1,1,102.589,fieldSmooth,2,0,1.9,1,1.1,0,7019,0,0,1,1,0,6,7019,182
1436,colorstoggle,60206,1,1,2,102.589,fieldSmooth,1,0.098716,0,0,1.1,0,0,1466,0,2,2,0,1,1466,188
1436,colorstoggle,60207,1,2,3,102.589,fieldSmooth,2,0,1.9,1,1.1,0,4120,501,2,1,1,0,6,4675,165
1436,colorstoggle,60208,1,2,4,102.589,fieldSmooth,1,0.098716,0,0,1.1,0,0,2014,0,2,2,0,4,2014,168
1436,colorstoggle,60209,1,3,5,102.589,fieldSmooth,2,0,1.9,1,1.1,0,1281,675,1,2,1,0,1,1982,166
1436,colorstoggle,60210,1,3,6,102.589,fieldSmooth,1,0.098716,0,0,1.1,1,1807,539,1,2,1,1,1,2374,170
1436,colorstoggle,60211,1,4,7,102.589,fieldSmooth,1,0.098716,0,0,1.1,0,1606,0,0,1,1,0,6,1605,174
1436,colorstoggle,60212,1,4,8,102.589,fieldSmooth,2,0,1.9,1,1.1,0,0,3366,0,2,2,0,6,3366,164
1436,colorstoggle,60213,2,1,9,419.935,fieldSmooth,2,0,1.9,1,1.1,0,2945,874,1,2,1,0,5,3842,165
1436,colorstoggle,60214,2,1,10,419.935,fieldSmooth,1,0.098716,0,0,1.1,0,1668,317,1,2,1,0,4,2009,165
1436,colorstoggle,60215,2,2,11,419.935,fieldSmooth,1,0.098716,0,0,1.1,1,5636,247,2,1,1,1,3,5934,166
1436,colorstoggle,60216,2,2,12,419.935,fieldSmooth,2,0,1.9,1,1.1,0,1688,824,1,2,1,0,1,2540,167
1436,colorstoggle,60217,2,3,13,419.935,fieldSmooth,2,0,1.9,1,1.1,0,2488,234,2,1,1,0,6,2771,165
1436,colorstoggle,60218,2,3,14,419.935,fieldSmooth,1,0.098716,0,0,1.1,0,3467,0,0,1,1,0,6,3467,162
1436,colorstoggle,60219,2,4,15,419.935,fieldSmooth,1,0.098716,0,0,1.1,0,1786,0,0,1,1,0,1,1786,164
1436,colorstoggle,60220,2,4,16,419.935,fieldSmooth,2,0,1.9,1,1.1,0,3438,0,0,1,1,0,6,3438,171
1436,colorstoggle,60221,3,1,17,102.589,fieldSmooth,1,0.098716,0,0,1.1,0,1206,416,2,1,1,0,4,1675,165
1436,colorstoggle,60222,3,1,18,102.589,fieldSmooth,2,0,1.9,1,1.1,1,798,485,1,2,1,1,4,1311,168
1436,colorstoggle,60223,3,2,19,102.589,fieldSmooth,1,0.098716,0,0,1.1,1,2176,180,1,2,1,1,3,2381,166
1436,colorstoggle,60224,3,2,20,102.589,fieldSmooth,2,0,1.9,1,1.1,1,57276,993,1,2,1,1,6,58294,165
1436,colorstoggle,60225,3,3,21,102.589,fieldSmooth,2,0,1.9,1,1.1,0,0,2952,0,2,2,0,1,2952,183
1436,colorstoggle,60226,3,3,22,102.589,fieldSmooth,1,0.098716,0,0,1.1,1,872,2060,1,2,1,1,1,2961,166
1436,colorstoggle,60227,3,4,23,102.589,fieldSmooth,2,0,1.9,1,1.1,0,0,1358,0,2,2,0,3,1358,166
1436,colorstoggle,60228,3,4,24,102.589,fieldSmooth,1,0.098716,0,0,1.1,1,1119,0,0,1,1,1,6,1119,164
1436,colorstoggle,60229,4,1,25,419.935,fieldSmooth,2,0,1.9,1,1.1,1,1300,0,0,1,1,1,4,1300,166
1436,colorstoggle,60230,4,1,26,419.935,fieldSmooth,1,0.098716,0,0,1.1,0,2411,0,0,1,1,0,6,2411,166
1436,colorstoggle,60231,4,2,27,419.935,fieldSmooth,2,0,1.9,1,1.1,0,1700,0,0,1,1,0,6,1700,171
1436,colorstoggle,60232,4,3,28,419.935,fieldSmooth,2,0,1.9,1,1.1,0,0,978,0,2,2,0,4,978,173
1436,colorstoggle,60233,4,2,29,419.935,fieldSmooth,1,0.098716,0,0,1.1,0,6216,1298,1,2,1,0,1,7541,169
1436,colorstoggle,60234,4,4,30,419.935,fieldSmooth,2,0,1.9,1,1.1,0,0,2280,0,2,2,0,1,2280,167
1436,colorstoggle,60235,4,3,31,419.935,fieldSmooth,1,0.098716,0,0,1.1,0,0,2675,0,2,2,0,4,2675,164
1436,colorstoggle,60236,4,4,32,419.935,fieldSmooth,1,0.098716,0,0,1.1,0,1282,1502,1,2,1,0,3,2809,179
1438,colorstoggle,60429,1,1,1,419.935,fieldSmooth,2,0,1.9,1,1.1,1,0,11291,0,2,2,1,4,11291,1442
1438,colorstoggle,60430,1,2,2,419.935,fieldSmooth,2,0,1.9,1,1.1,1,0,5490,0,2,2,1,6,5490,814
1438,colorstoggle,60431,1,3,3,419.935,fieldSmooth,2,0,1.9,1,1.1,1,0,5993,0,2,2,1,4,5993,606
1438,colorstoggle,60432,1,1,4,419.935,fieldSmooth,1,0.098716,0,0,1.1,0,11323,0,0,1,1,0,4,11323,614
1438,colorstoggle,60433,1,2,5,419.935,fieldSmooth,1,0.098716,0,0,1.1,1,25885,0,0,1,1,1,3,25884,618
1438,colorstoggle,60434,1,4,6,419.935,fieldSmooth,2,0,1.9,1,1.1,1,25994,0,0,1,1,1,3,25994,606
1438,colorstoggle,60435,1,3,7,419.935,fieldSmooth,1,0.098716,0,0,1.1,1,0,9866,0,2,2,1,6,9866,604
1438,colorstoggle,60436,1,4,8,419.935,fieldSmooth,1,0.098716,0,0,1.1,0,23788,0,0,1,1,0,6,23788,623
1438,colorstoggle,60437,2,1,9,102.589,fieldSmooth,2,0,1.9,1,1.1,1,0,7197,0,2,2,1,6,7197,770
1438,colorstoggle,60438,2,1,10,102.589,fieldSmooth,1,0.098716,0,0,1.1,0,0,27388,0,2,2,0,6,27388,630
1438,colorstoggle,60439,2,2,11,102.589,fieldSmooth,2,0,1.9,1,1.1,0,0,7447,0,2,2,0,4,7447,594
1438,colorstoggle,60440,2,3,12,102.589,fieldSmooth,2,0,1.9,1,1.1,1,0,16469,0,2,2,1,5,16469,608
1438,colorstoggle,60441,2,2,13,102.589,fieldSmooth,1,0.098716,0,0,1.1,0,14940,0,0,1,1,0,5,14940,588
1438,colorstoggle,60442,2,3,14,102.589,fieldSmooth,1,0.098716,0,0,1.1,0,6081,0,0,1,1,0,3,6080,678
1438,colorstoggle,60443,2,4,15,102.589,fieldSmooth,1,0.098716,0,0,1.1,1,7570,0,0,1,1,1,3,7570,656
1438,colorstoggle,60444,2,4,16,102.589,fieldSmooth,2,0,1.9,1,1.1,0,8015,0,0,1,1,0,1,8015,662
1438,colorstoggle,60445,3,1,17,419.935,fieldSmooth,1,0.098716,0,0,1.1,0,0,6562,0,2,2,0,4,6561,578
1438,colorstoggle,60446,3,2,18,419.935,fieldSmooth,1,0.098716,0,0,1.1,0,6294,0,0,1,1,0,3,6294,609
1438,colorstoggle,60447,3,1,19,419.935,fieldSmooth,2,0,1.9,1,1.1,0,15405,0,0,1,1,0,3,15405,601
1438,colorstoggle,60448,3,2,20,419.935,fieldSmooth,2,0,1.9,1,1.1,0,0,4685,0,2,2,0,6,4685,605
1438,colorstoggle,60449,3,3,21,419.935,fieldSmooth,2,0,1.9,1,1.1,0,0,10697,0,2,2,0,4,10697,597
1438,colorstoggle,60450,3,3,22,419.935,fieldSmooth,1,0.098716,0,0,1.1,0,0,6032,0,2,2,0,4,6032,596
1438,colorstoggle,60451,3,4,23,419.935,fieldSmooth,2,0,1.9,1,1.1,1,19090,0,0,1,1,1,4,19089,746
1438,colorstoggle,60452,3,4,24,419.935,fieldSmooth,1,0.098716,0,0,1.1,0,0,5811,0,2,2,0,3,5811,607
1438,colorstoggle,60453,4,1,25,102.589,fieldSmooth,1,0.098716,0,0,1.1,0,24618,0,0,1,1,0,5,24618,612
1438,colorstoggle,60454,4,2,26,102.589,fieldSmooth,1,0.098716,0,0,1.1,1,6478,0,0,1,1,1,2,6477,591
1438,colorstoggle,60455,4,3,27,102.589,fieldSmooth,1,0.098716,0,0,1.1,0,0,6083,0,2,2,0,4,6083,635
1438,colorstoggle,60456,4,1,28,102.589,fieldSmooth,2,0,1.9,1,1.1,1,10782,0,0,1,1,1,5,10781,623
1438,colorstoggle,60457,4,2,29,102.589,fieldSmooth,2,0,1.9,1,1.1,0,0,5784,0,2,2,0,4,5783,633
1438,colorstoggle,60458,4,3,30,102.589,fieldSmooth,2,0,1.9,1,1.1,0,0,6132,0,2,2,0,4,6132,596
1438,colorstoggle,60459,4,4,31,102.589,fieldSmooth,2,0,1.9,1,1.1,1,8705,0,0,1,1,1,2,8705,610
1438,colorstoggle,60460,4,4,32,102.589,fieldSmooth,1,0.098716,0,0,1.1,0,0,9456,0,2,2,0,4,9455,595
1439,colorstoggle,60461,1,1,1,419.935,fieldSmooth,1,0.098716,0,0,1.1,0,13014,0,0,1,1,0,3,13012,3401
1439,colorstoggle,60462,1,1,2,419.935,fieldSmooth,2,0,1.9,1,1.1,1,0,3772,0,2,2,1,2,3772,1053
1439,colorstoggle,60463,1,2,3,419.935,fieldSmooth,2,0,1.9,1,1.1,0,0,15716,0,2,2,0,1,15716,1253
1439,colorstoggle,60464,1,2,4,419.935,fieldSmooth,1,0.098716,0,0,1.1,0,0,8488,0,2,2,0,3,8487,946
1439,colorstoggle,60465,1,3,5,419.935,fieldSmooth,1,0.098716,0,0,1.1,0,0,9420,0,2,2,0,1,9420,1085
1439,colorstoggle,60466,1,3,6,419.935,fieldSmooth,2,0,1.9,1,1.1,1,0,5649,0,2,2,1,1,5649,1138
1439,colorstoggle,60467,1,4,7,419.935,fieldSmooth,1,0.098716,0,0,1.1,0,0,2143,0,2,2,0,6,2143,884
1439,colorstoggle,60468,1,4,8,419.935,fieldSmooth,2,0,1.9,1,1.1,0,0,13041,0,2,2,0,4,13040,1054
1439,colorstoggle,60469,2,1,9,102.589,fieldSmooth,1,0.098716,0,0,1.1,1,10523,0,0,1,1,1,1,10523,995
1439,colorstoggle,60470,2,1,10,102.589,fieldSmooth,2,0,1.9,1,1.1,0,16335,0,0,1,1,0,2,16335,2668
1439,colorstoggle,60471,2,2,11,102.589,fieldSmooth,1,0.098716,0,0,1.1,1,0,5137,0,2,2,1,4,5137,1580
1439,colorstoggle,60472,2,2,12,102.589,fieldSmooth,2,0,1.9,1,1.1,1,0,8178,0,2,2,1,5,8178,1246
1439,colorstoggle,60473,2,3,13,102.589,fieldSmooth,1,0.098716,0,0,1.1,0,0,2231,0,2,2,0,3,2231,1084
1439,colorstoggle,60474,2,3,14,102.589,fieldSmooth,2,0,1.9,1,1.1,0,0,1951,0,2,2,0,5,1951,999
1439,colorstoggle,60475,2,4,15,102.589,fieldSmooth,2,0,1.9,1,1.1,0,8228,0,0,1,1,0,3,8228,981
1439,colorstoggle,60476,2,4,16,102.589,fieldSmooth,1,0.098716,0,0,1.1,0,8821,0,0,1,1,0,5,8821,1256
1439,colorstoggle,60477,3,1,17,419.935,fieldSmooth,2,0,1.9,1,1.1,1,12421,0,0,1,1,1,4,12421,1028
1439,colorstoggle,60478,3,1,18,419.935,fieldSmooth,1,0.098716,0,0,1.1,1,0,9569,0,2,2,1,6,9569,938
1439,colorstoggle,60479,3,2,19,419.935,fieldSmooth,1,0.098716,0,0,1.1,0,0,19884,0,2,2,0,6,19884,1406
1439,colorstoggle,60480,3,2,20,419.935,fieldSmooth,2,0,1.9,1,1.1,0,5299,0,0,1,1,0,5,5298,1177
1439,colorstoggle,60481,3,3,21,419.935,fieldSmooth,2,0,1.9,1,1.1,1,0,10839,0,2,2,1,5,10839,971
1439,colorstoggle,60482,3,3,22,419.935,fieldSmooth,1,0.098716,0,0,1.1,0,5468,0,0,1,1,0,3,5467,1197
1439,colorstoggle,60483,3,4,23,419.935,fieldSmooth,1,0.098716,0,0,1.1,0,11652,0,0,1,1,0,6,11652,1365
1439,colorstoggle,60484,3,4,24,419.935,fieldSmooth,2,0,1.9,1,1.1,1,0,2977,0,2,2,1,1,2977,1283
1439,colorstoggle,60485,4,1,25,102.589,fieldSmooth,1,0.098716,0,0,1.1,1,0,11248,0,2,2,1,5,11248,2352
1439,colorstoggle,60486,4,1,26,102.589,fieldSmooth,2,0,1.9,1,1.1,0,0,5694,0,2,2,0,1,5694,1423
1439,colorstoggle,60487,4,2,27,102.589,fieldSmooth,2,0,1.9,1,1.1,0,0,6662,0,2,2,0,4,6662,1710
1439,colorstoggle,60488,4,2,28,102.589,fieldSmooth,1,0.098716,0,0,1.1,0,8861,0,0,1,1,0,3,8860,1241
1439,colorstoggle,60489,4,3,29,102.589,fieldSmooth,2,0,1.9,1,1.1,0,0,2391,0,2,2,0,4,2391,1266
1439,colorstoggle,60490,4,4,30,102.589,fieldSmooth,2,0,1.9,1,1.1,0,0,7244,0,2,2,0,5,7243,1528
1439,colorstoggle,60491,4,3,31,102.589,fieldSmooth,1,0.098716,0,0,1.1,0,12377,0,0,1,1,0,2,12377,2823
1439,colorstoggle,60492,4,4,32,102.589,fieldSmooth,1,0.098716,0,0,1.1,0,8237,0,0,1,1,0,4,8237,1450
1440,colorstoggle,60493,1,1,1,419.935,fieldSmooth,2,0,1.9,1,1.1,0,11099,0,0,1,1,0,5,11099,813
1440,colorstoggle,60494,1,2,2,419.935,fieldSmooth,2,0,1.9,1,1.1,1,17105,0,0,1,1,1,6,17104,424
1440,colorstoggle,60495,1,1,3,419.935,fieldSmooth,1,0.098716,0,0,1.1,1,8780,0,0,1,1,1,5,8780,411
1440,colorstoggle,60496,1,3,4,419.935,fieldSmooth,2,0,1.9,1,1.1,0,0,3496,0,2,2,0,4,3496,425
1440,colorstoggle,60497,1,4,5,419.935,fieldSmooth,2,0,1.9,1,1.1,0,12659,0,0,1,1,0,5,12659,416
1440,colorstoggle,60498,1,2,6,419.935,fieldSmooth,1,0.098716,0,0,1.1,0,0,10789,0,2,2,0,2,10789,421
1440,colorstoggle,60499,1,3,7,419.935,fieldSmooth,1,0.098716,0,0,1.1,0,23899,0,0,1,1,0,6,23899,424
1440,colorstoggle,60500,1,4,8,419.935,fieldSmooth,1,0.098716,0,0,1.1,1,8549,0,0,1,1,1,4,8549,416
1440,colorstoggle,60501,2,1,9,102.589,fieldSmooth,1,0.098716,0,0,1.1,1,21059,0,0,1,1,1,1,21059,417
1440,colorstoggle,60502,2,1,10,102.589,fieldSmooth,2,0,1.9,1,1.1,1,0,3275,0,2,2,1,4,3275,411
1440,colorstoggle,60503,2,2,11,102.589,fieldSmooth,1,0.098716,0,0,1.1,1,0,4174,0,2,2,1,3,4174,412
1440,colorstoggle,60504,2,3,12,102.589,fieldSmooth,1,0.098716,0,0,1.1,0,0,4622,0,2,2,0,6,4622,416
1440,colorstoggle,60505,2,2,13,102.589,fieldSmooth,2,0,1.9,1,1.1,0,13466,0,0,1,1,0,4,13466,407
1440,colorstoggle,60506,2,4,14,102.589,fieldSmooth,1,0.098716,0,0,1.1,0,11205,0,0,1,1,0,6,11205,412
1440,colorstoggle,60507,2,3,15,102.589,fieldSmooth,2,0,1.9,1,1.1,0,8575,0,0,1,1,0,6,8575,431
1440,colorstoggle,60508,2,4,16,102.589,fieldSmooth,2,0,1.9,1,1.1,0,5342,0,0,1,1,0,1,5342,427
1440,colorstoggle,60509,3,1,17,419.935,fieldSmooth,1,0.098716,0,0,1.1,0,2772,0,0,1,1,0,4,2772,418
1440,colorstoggle,60510,3,2,18,419.935,fieldSmooth,1,0.098716,0,0,1.1,0,6360,0,0,1,1,0,2,6360,412
1440,colorstoggle,60511,3,3,19,419.935,fieldSmooth,1,0.098716,0,0,1.1,1,3390,0,0,1,1,1,3,3390,411
1440,colorstoggle,60512,3,1,20,419.935,fieldSmooth,2,0,1.9,1,1.1,0,6118,0,0,1,1,0,6,6118,409
1440,colorstoggle,60513,3,2,21,419.935,fieldSmooth,2,0,1.9,1,1.1,1,3425,0,0,1,1,1,2,3425,412
1440,colorstoggle,60514,3,3,22,419.935,fieldSmooth,2,0,1.9,1,1.1,0,0,3011,0,2,2,0,6,3011,409
1440,colorstoggle,60515,3,4,23,419.935,fieldSmooth,2,0,1.9,1,1.1,0,0,1624,0,2,2,0,2,1624,406
1440,colorstoggle,60516,3,4,24,419.935,fieldSmooth,1,0.098716,0,0,1.1,0,3699,0,0,1,1,0,3,3699,456
1440,colorstoggle,60517,4,1,25,102.589,fieldSmooth,1,0.098716,0,0,1.1,0,0,3867,0,2,2,0,5,3867,424
1440,colorstoggle,60518,4,2,26,102.589,fieldSmooth,1,0.098716,0,0,1.1,0,11253,0,0,1,1,0,2,11253,413
1440,colorstoggle,60519,4,1,27,102.589,fieldSmooth,2,0,1.9,1,1.1,0,1454,0,0,1,1,0,3,1454,449
1440,colorstoggle,60520,4,2,28,102.589,fieldSmooth,2,0,1.9,1,1.1,0,0,1655,0,2,2,0,5,1655,448
1440,colorstoggle,60521,4,3,29,102.589,fieldSmooth,2,0,1.9,1,1.1,0,0,2388,0,2,2,0,6,2388,436
1440,colorstoggle,60522,4,3,30,102.589,fieldSmooth,1,0.098716,0,0,1.1,0,2263,0,0,1,1,0,2,2263,407
1440,colorstoggle,60523,4,4,31,102.589,fieldSmooth,2,0,1.9,1,1.1,0,1349,0,0,1,1,0,4,1349,409
1440,colorstoggle,60524,4,4,32,102.589,fieldSmooth,1,0.098716,0,0,1.1,0,1048,0,0,1,1,0,5,1048,416
1441,colorstoggle,60525,1,1,1,419.935,fieldSmooth,1,0.098716,0,0,1.1,1,12842,15727,5,1,2,1,2,28766,231
1441,colorstoggle,60526,1,1,2,419.935,fieldSmooth,2,0,1.9,1,1.1,1,1035,8045,1,1,2,1,4,9117,228
1441,colorstoggle,60527,1,2,3,419.935,fieldSmooth,2,0,1.9,1,1.1,1,6278,10722,3,2,1,1,3,17120,218
1441,colorstoggle,60528,1,3,4,419.935,fieldSmooth,2,0,1.9,1,1.1,0,33545,24798,7,2,1,0,3,58616,203
1441,colorstoggle,60529,1,2,5,419.935,fieldSmooth,1,0.098716,0,0,1.1,1,9545,2119,1,2,1,1,2,11700,205
1441,colorstoggle,60530,1,3,6,419.935,fieldSmooth,1,0.098716,0,0,1.1,1,6606,0,0,1,1,1,1,6606,200
1441,colorstoggle,60531,1,4,7,419.935,fieldSmooth,2,0,1.9,1,1.1,1,31112,27300,5,1,2,1,2,58606,201
1441,colorstoggle,60532,1,4,8,419.935,fieldSmooth,1,0.098716,0,0,1.1,1,5666,10893,1,2,1,1,1,16598,202
1441,colorstoggle,60533,2,1,9,102.589,fieldSmooth,1,0.098716,0,0,1.1,1,2269,11723,1,2,1,1,6,14032,201
1441,colorstoggle,60534,2,2,10,102.589,fieldSmooth,1,0.098716,0,0,1.1,1,11462,3092,1,1,2,1,5,14588,200
1441,colorstoggle,60535,2,1,11,102.589,fieldSmooth,2,0,1.9,1,1.1,0,34474,14388,3,2,1,0,4,48977,212
1441,colorstoggle,60536,2,2,12,102.589,fieldSmooth,2,0,1.9,1,1.1,1,46940,37075,4,1,1,1,4,84168,207
1441,colorstoggle,60537,2,3,13,102.589,fieldSmooth,1,0.098716,0,0,1.1,1,17153,1906,2,1,1,1,3,19133,204
1441,colorstoggle,60538,2,4,14,102.589,fieldSmooth,1,0.098716,0,0,1.1,1,11094,8972,1,2,1,1,2,20103,204
1441,colorstoggle,60539,2,3,15,102.589,fieldSmooth,2,0,1.9,1,1.1,1,26700,17861,4,1,1,1,5,44709,209
1441,colorstoggle,60540,2,4,16,102.589,fieldSmooth,2,0,1.9,1,1.1,1,8914,6006,1,1,2,1,4,14957,227
1441,colorstoggle,60541,3,1,17,102.589,fieldSmooth,1,0.098716,0,0,1.1,1,16582,5241,1,2,1,1,2,21861,200
1441,colorstoggle,60542,3,1,18,102.589,fieldSmooth,2,0,1.9,1,1.1,1,49199,27003,5,2,1,1,5,76394,204
1441,colorstoggle,60543,3,2,19,102.589,fieldSmooth,1,0.098716,0,0,1.1,1,10805,10737,1,2,1,1,2,21579,214
1441,colorstoggle,60544,3,2,20,102.589,fieldSmooth,2,0,1.9,1,1.1,1,26221,17697,2,1,1,1,6,43994,221
1441,colorstoggle,60545,3,3,21,102.589,fieldSmooth,1,0.098716,0,0,1.1,1,11898,7138,1,2,1,1,3,19074,202
1441,colorstoggle,60546,3,3,22,102.589,fieldSmooth,2,0,1.9,1,1.1,0,62985,6949,2,1,1,0,4,70008,241
1441,colorstoggle,60547,3,4,23,102.589,fieldSmooth,2,0,1.9,1,1.1,1,28052,18653,3,2,1,1,5,46814,220
1441,colorstoggle,60548,3,4,24,102.589,fieldSmooth,1,0.098716,0,0,1.1,1,5289,3686,1,2,1,1,4,9010,205
1441,colorstoggle,60549,4,1,25,419.935,fieldSmooth,1,0.098716,0,0,1.1,1,15472,2917,2,1,1,1,6,18461,203
1441,colorstoggle,60550,4,2,26,419.935,fieldSmooth,1,0.098716,0,0,1.1,1,17114,5357,3,2,1,1,3,22578,216
1441,colorstoggle,60551,4,1,27,419.935,fieldSmooth,2,0,1.9,1,1.1,1,28903,24244,8,2,2,1,5,53466,208
1441,colorstoggle,60552,4,2,28,419.935,fieldSmooth,2,0,1.9,1,1.1,0,59460,28762,4,1,1,0,6,88377,208
1441,colorstoggle,60553,4,3,29,419.935,fieldSmooth,1,0.098716,0,0,1.1,1,10208,11412,3,2,1,1,4,21736,211
1441,colorstoggle,60554,4,3,30,419.935,fieldSmooth,2,0,1.9,1,1.1,1,17563,2476,2,1,1,1,4,20113,194
1441,colorstoggle,60555,4,4,31,419.935,fieldSmooth,1,0.098716,0,0,1.1,1,10352,1565,2,1,1,1,6,11991,201
1441,colorstoggle,60556,4,4,32,419.935,fieldSmooth,2,0,1.9,1,1.1,1,25492,6451,2,1,1,1,3,32019,201
1442,colorstoggle,60557,1,1,1,419.935,fieldSmooth,2,0,1.9,1,1.1,1,8290,725,1,2,1,1,3,9055,185
1442,colorstoggle,60558,1,1,2,419.935,fieldSmooth,1,0.098716,0,0,1.1,1,3659,5465,2,1,1,1,5,9189,270
1442,colorstoggle,60559,1,2,3,419.935,fieldSmooth,1,0.098716,0,0,1.1,1,10493,2373,2,1,1,1,2,12940,200
1442,colorstoggle,60560,1,2,4,419.935,fieldSmooth,2,0,1.9,1,1.1,1,6623,11160,7,1,2,1,1,18037,168
1442,colorstoggle,60561,1,3,5,419.935,fieldSmooth,1,0.098716,0,0,1.1,0,8380,17720,2,2,2,0,3,26168,175
1442,colorstoggle,60562,1,3,6,419.935,fieldSmooth,2,0,1.9,1,1.1,0,17617,5061,20,1,1,0,1,23342,216
1442,colorstoggle,60563,1,4,7,419.935,fieldSmooth,2,0,1.9,1,1.1,1,7757,7619,1,1,2,1,3,15409,168
1442,colorstoggle,60564,1,4,8,419.935,fieldSmooth,1,0.098716,0,0,1.1,1,7186,6143,6,1,1,1,5,13544,160
1442,colorstoggle,60565,2,1,9,102.589,fieldSmooth,1,0.098716,0,0,1.1,0,3684,8269,3,1,2,0,3,12045,168
1442,colorstoggle,60566,2,2,10,102.589,fieldSmooth,1,0.098716,0,0,1.1,0,10248,2216,11,2,1,0,3,12877,155
1442,colorstoggle,60567,2,1,11,102.589,fieldSmooth,2,0,1.9,1,1.1,1,0,10213,0,2,2,1,3,10213,159
1442,colorstoggle,60568,2,2,12,102.589,fieldSmooth,2,0,1.9,1,1.1,0,0,3154,0,2,2,0,5,3154,149
1442,colorstoggle,60569,2,3,13,102.589,fieldSmooth,1,0.098716,0,0,1.1,1,11198,5935,8,1,1,1,5,17406,152
1442,colorstoggle,60570,2,4,14,102.589,fieldSmooth,1,0.098716,0,0,1.1,1,4512,2147,1,2,1,1,5,6691,151
1442,colorstoggle,60571,2,3,15,102.589,fieldSmooth,2,0,1.9,1,1.1,0,10258,846,3,2,1,0,1,11198,149
1442,colorstoggle,60572,2,4,16,102.589,fieldSmooth,2,0,1.9,1,1.1,1,6767,873,3,2,1,1,4,7734,149
1442,colorstoggle,60573,3,1,17,102.589,fieldSmooth,2,0,1.9,1,1.1,0,8125,1123,3,2,1,0,4,9362,150
1442,colorstoggle,60574,3,1,18,102.589,fieldSmooth,1,0.098716,0,0,1.1,0,7584,414,1,2,1,0,5,8031,151
1442,colorstoggle,60575,3,2,19,102.589,fieldSmooth,2,0,1.9,1,1.1,1,9319,279,2,1,1,1,1,9661,151
1442,colorstoggle,60576,3,2,20,102.589,fieldSmooth,1,0.098716,0,0,1.1,1,3256,278,2,1,1,1,2,3628,168
1442,colorstoggle,60577,3,3,21,102.589,fieldSmooth,1,0.098716,0,0,1.1,1,3278,302,2,1,1,1,6,3661,151
1442,colorstoggle,60578,3,3,22,102.589,fieldSmooth,2,0,1.9,1,1.1,1,8378,911,3,2,1,1,3,9382,150
1442,colorstoggle,60579,3,4,23,102.589,fieldSmooth,2,0,1.9,1,1.1,0,7249,980,3,2,1,0,4,8324,151
1442,colorstoggle,60580,3,4,24,102.589,fieldSmooth,1,0.098716,0,0,1.1,1,7270,682,3,2,1,1,1,8049,151
1442,colorstoggle,60581,4,1,25,419.935,fieldSmooth,2,0,1.9,1,1.1,0,7196,0,0,1,1,0,1,7196,152
1442,colorstoggle,60582,4,1,26,419.935,fieldSmooth,1,0.098716,0,0,1.1,0,5260,680,3,2,1,0,1,6030,150
1442,colorstoggle,60583,4,2,27,419.935,fieldSmooth,2,0,1.9,1,1.1,1,6265,611,4,1,1,1,6,7023,196
1442,colorstoggle,60584,4,3,28,419.935,fieldSmooth,2,0,1.9,1,1.1,0,4612,662,3,2,1,0,1,5373,145
1442,colorstoggle,60585,4,2,29,419.935,fieldSmooth,1,0.098716,0,0,1.1,0,6108,986,5,2,1,0,3,7246,181
1442,colorstoggle,60586,4,3,30,419.935,fieldSmooth,1,0.098716,0,0,1.1,0,11729,850,5,2,1,0,6,12736,178
1442,colorstoggle,60587,4,4,31,419.935,fieldSmooth,1,0.098716,0,0,1.1,1,6638,971,6,1,1,1,5,7827,153
1442,colorstoggle,60588,4,4,32,419.935,fieldSmooth,2,0,1.9,1,1.1,0,8017,659,4,1,1,0,5,8815,152
1444,colorstoggle,60685,1,1,1,419.935,fieldSmooth,1,0.098716,0,0,1.1,1,6788,5259,1,2,1,1,6,12091,794
1444,colorstoggle,60686,1,1,2,419.935,fieldSmooth,2,0,1.9,1,1.1,0,51460,14372,20,1,1,0,1,66707,227
1444,colorstoggle,60687,1,2,3,419.935,fieldSmooth,2,0,1.9,1,1.1,0,28107,4678,2,1,1,0,1,32865,198
1444,colorstoggle,60688,1,2,4,419.935,fieldSmooth,1,0.098716,0,0,1.1,1,49473,0,0,1,1,1,3,49473,225
1444,colorstoggle,60689,1,3,5,419.935,fieldSmooth,2,0,1.9,1,1.1,0,25630,1732,1,2,1,0,2,27405,184
1444,colorstoggle,60690,1,3,6,419.935,fieldSmooth,1,0.098716,0,0,1.1,1,12132,0,0,1,1,1,5,12132,201
1444,colorstoggle,60691,1,4,7,419.935,fieldSmooth,2,0,1.9,1,1.1,1,65571,14018,14,1,1,1,3,80168,205
1444,colorstoggle,60692,1,4,8,419.935,fieldSmooth,1,0.098716,0,0,1.1,0,7443,2674,1,2,1,0,3,10177,190
1444,colorstoggle,60693,2,1,9,102.589,fieldSmooth,1,0.098716,0,0,1.1,0,23498,6102,2,1,1,0,5,29680,198
1444,colorstoggle,60694,2,1,10,102.589,fieldSmooth,2,0,1.9,1,1.1,1,10920,4496,1,2,1,1,4,15459,198
1444,colorstoggle,60695,2,2,11,102.589,fieldSmooth,1,0.098716,0,0,1.1,0,10486,2623,1,2,1,0,2,13149,190
1444,colorstoggle,60696,2,3,12,102.589,fieldSmooth,1,0.098716,0,0,1.1,1,15718,682,2,1,1,1,5,16479,196
1444,colorstoggle,60697,2,2,13,102.589,fieldSmooth,2,0,1.9,1,1.1,1,11220,3511,1,2,1,1,1,14772,179
1444,colorstoggle,60698,2,3,14,102.589,fieldSmooth,2,0,1.9,1,1.1,0,19701,1590,1,2,1,0,2,21332,185
1444,colorstoggle,60699,2,4,15,102.589,fieldSmooth,2,0,1.9,1,1.1,0,11569,0,0,1,1,0,1,11569,188
1444,colorstoggle,60700,2,4,16,102.589,fieldSmooth,1,0.098716,0,0,1.1,1,30221,0,0,1,1,1,4,30221,184
1444,colorstoggle,60701,3,1,17,102.589,fieldSmooth,1,0.098716,0,0,1.1,1,14308,1645,1,2,1,1,2,15994,192
1444,colorstoggle,60702,3,2,18,102.589,fieldSmooth,1,0.098716,0,0,1.1,1,14802,1408,1,2,1,1,2,16249,187
1444,colorstoggle,60703,3,1,19,102.589,fieldSmooth,2,0,1.9,1,1.1,0,13422,831,1,2,1,0,1,14293,184
1444,colorstoggle,60704,3,2,20,102.589,fieldSmooth,2,0,1.9,1,1.1,1,17638,0,0,1,1,1,5,17638,184
1444,colorstoggle,60705,3,3,21,102.589,fieldSmooth,1,0.098716,0,0,1.1,1,9717,993,1,2,1,1,5,10749,185
1444,colorstoggle,60706,3,3,22,102.589,fieldSmooth,2,0,1.9,1,1.1,0,15781,813,1,2,1,0,2,16637,188
1444,colorstoggle,60707,3,4,23,102.589,fieldSmooth,2,0,1.9,1,1.1,0,32430,600,1,2,1,0,5,33087,179
1444,colorstoggle,60708,3,4,24,102.589,fieldSmooth,1,0.098716,0,0,1.1,1,5535,736,1,2,1,1,5,6318,183
1444,colorstoggle,60709,4,1,25,419.935,fieldSmooth,2,0,1.9,1,1.1,1,9864,0,0,1,1,1,5,9864,211
1444,colorstoggle,60710,4,2,26,419.935,fieldSmooth,2,0,1.9,1,1.1,0,6459,714,1,2,1,0,1,7219,187
1444,colorstoggle,60711,4,3,27,419.935,fieldSmooth,2,0,1.9,1,1.1,0,20205,562,1,2,1,0,5,20809,179
1444,colorstoggle,60712,4,1,28,419.935,fieldSmooth,1,0.098716,0,0,1.1,1,13235,291,2,1,1,1,2,13608,187
1444,colorstoggle,60713,4,4,29,419.935,fieldSmooth,2,0,1.9,1,1.1,0,5973,908,1,2,1,0,1,6920,219
1444,colorstoggle,60714,4,2,30,419.935,fieldSmooth,1,0.098716,0,0,1.1,1,7673,0,0,1,1,1,6,7673,188
1444,colorstoggle,60715,4,3,31,419.935,fieldSmooth,1,0.098716,0,0,1.1,1,5240,0,0,1,1,1,5,5240,175
1444,colorstoggle,60716,4,4,32,419.935,fieldSmooth,1,0.098716,0,0,1.1,1,14043,829,1,2,1,1,4,14914,178
1446,colorstoggle,60717,1,1,1,419.935,fieldSmooth,1,0.098716,0,0,1.1,0,11490,12163,3,2,1,0,1,23769,188
1446,colorstoggle,60718,1,1,2,419.935,fieldSmooth,2,0,1.9,1,1.1,1,3570,2676,1,1,2,1,2,6276,203
1446,colorstoggle,60719,1,2,3,419.935,fieldSmooth,2,0,1.9,1,1.1,0,5227,4328,1,2,1,0,4,9581,207
1446,colorstoggle,60720,1,2,4,419.935,fieldSmooth,1,0.098716,0,0,1.1,1,4510,0,0,1,1,1,3,4510,244
1446,colorstoggle,60721,1,3,5,419.935,fieldSmooth,2,0,1.9,1,1.1,1,3235,4327,1,1,2,1,1,7589,211
1446,colorstoggle,60722,1,3,6,419.935,fieldSmooth,1,0.098716,0,0,1.1,1,5217,4303,1,2,1,1,6,9547,225
1446,colorstoggle,60723,1,4,7,419.935,fieldSmooth,1,0.098716,0,0,1.1,0,13002,9858,2,1,1,0,6,22924,209
1446,colorstoggle,60724,1,4,8,419.935,fieldSmooth,2,0,1.9,1,1.1,1,7062,5760,2,2,2,1,3,12882,228
1446,colorstoggle,60725,2,1,9,102.589,fieldSmooth,1,0.098716,0,0,1.1,0,9516,7689,3,2,1,0,4,17294,203
1446,colorstoggle,60726,2,1,10,102.589,fieldSmooth,2,0,1.9,1,1.1,1,11870,13660,9,1,2,1,6,25760,223
1446,colorstoggle,60727,2,2,11,102.589,fieldSmooth,1,0.098716,0,0,1.1,1,1979,5546,1,2,1,1,1,7561,208
1446,colorstoggle,60728,2,2,12,102.589,fieldSmooth,2,0,1.9,1,1.1,1,20125,13872,5,2,1,1,1,34134,217
1446,colorstoggle,60729,2,3,13,102.589,fieldSmooth,2,0,1.9,1,1.1,1,47602,56417,13,1,2,1,4,104355,213
1446,colorstoggle,60730,2,4,14,102.589,fieldSmooth,2,0,1.9,1,1.1,1,0,2398,0,2,2,1,1,2398,203
1446,colorstoggle,60731,2,3,15,102.589,fieldSmooth,1,0.098716,0,0,1.1,1,3105,0,0,1,1,1,1,3105,199
1446,colorstoggle,60732,2,4,16,102.589,fieldSmooth,1,0.098716,0,0,1.1,1,64122,14325,9,2,1,1,5,78705,197
1446,colorstoggle,60733,3,1,17,419.935,fieldSmooth,1,0.098716,0,0,1.1,1,12520,24195,6,1,1,1,4,36874,201
1446,colorstoggle,60734,3,2,18,419.935,fieldSmooth,1,0.098716,0,0,1.1,0,0,14759,0,2,2,0,4,14759,200
1446,colorstoggle,60735,3,1,19,419.935,fieldSmooth,2,0,1.9,1,1.1,1,4029,4979,1,1,2,1,2,9033,202
1446,colorstoggle,60736,3,2,20,419.935,fieldSmooth,2,0,1.9,1,1.1,1,6709,4487,2,1,1,1,5,11258,201
1446,colorstoggle,60737,3,3,21,419.935,fieldSmooth,2,0,1.9,1,1.1,1,6093,8329,1,1,2,1,4,14448,208
1446,colorstoggle,60738,3,4,22,419.935,fieldSmooth,2,0,1.9,1,1.1,1,5707,7321,2,2,2,1,4,13077,196
1446,colorstoggle,60739,3,3,23,419.935,fieldSmooth,1,0.098716,0,0,1.1,1,14944,8145,2,1,1,1,1,23137,198
1446,colorstoggle,60740,3,4,24,419.935,fieldSmooth,1,0.098716,0,0,1.1,0,4154,4525,1,1,2,0,4,8706,207
1446,colorstoggle,60741,4,1,25,102.589,fieldSmooth,1,0.098716,0,0,1.1,1,9746,23108,4,2,2,1,6,32961,232
1446,colorstoggle,60742,4,1,26,102.589,fieldSmooth,2,0,1.9,1,1.1,1,33012,14984,3,2,1,1,3,48075,201
1446,colorstoggle,60743,4,2,27,102.589,fieldSmooth,1,0.098716,0,0,1.1,1,9479,3365,2,1,1,1,1,12892,210
1446,colorstoggle,60744,4,3,28,102.589,fieldSmooth,1,0.098716,0,0,1.1,1,2409,2484,1,2,1,1,3,4919,197
1446,colorstoggle,60745,4,2,29,102.589,fieldSmooth,2,0,1.9,1,1.1,1,3178,0,0,1,1,1,6,3178,198
1446,colorstoggle,60746,4,3,30,102.589,fieldSmooth,2,0,1.9,1,1.1,1,1124,5462,1,1,2,1,2,6610,207
1446,colorstoggle,60747,4,4,31,102.589,fieldSmooth,2,0,1.9,1,1.1,1,13752,64512,5,1,2,1,5,78394,219
1446,colorstoggle,60748,4,4,32,102.589,fieldSmooth,1,0.098716,0,0,1.1,1,15603,13018,3,2,1,1,1,28698,206
1447,colorstoggle,60589,1,1,1,419.935,fieldSmooth,1,0.098716,0,0,1.1,0,0,8940,0,2,2,0,5,8940,420
1447,colorstoggle,60590,1,2,2,419.935,fieldSmooth,1,0.098716,0,0,1.1,1,4948,0,0,1,1,1,5,4948,363
1447,colorstoggle,60591,1,1,3,419.935,fieldSmooth,2,0,1.9,1,1.1,1,3984,0,0,1,1,1,6,3983,370
1447,colorstoggle,60592,1,2,4,419.935,fieldSmooth,2,0,1.9,1,1.1,0,12660,0,0,1,1,0,6,12660,396
1447,colorstoggle,60593,1,3,5,419.935,fieldSmooth,2,0,1.9,1,1.1,1,0,3569,0,2,2,1,5,3569,384
1447,colorstoggle,60594,1,3,6,419.935,fieldSmooth,1,0.098716,0,0,1.1,0,0,2117,0,2,2,0,6,2117,399
1447,colorstoggle,60595,1,4,7,419.935,fieldSmooth,2,0,1.9,1,1.1,0,0,5876,0,2,2,0,5,5876,381
1447,colorstoggle,60596,1,4,8,419.935,fieldSmooth,1,0.098716,0,0,1.1,1,0,8449,0,2,2,1,4,8449,380
1447,colorstoggle,60597,2,1,9,102.589,fieldSmooth,2,0,1.9,1,1.1,0,0,8329,0,2,2,0,3,8329,374
1447,colorstoggle,60598,2,2,10,102.589,fieldSmooth,2,0,1.9,1,1.1,1,11693,0,0,1,1,1,5,11693,386
1447,colorstoggle,60599,2,3,11,102.589,fieldSmooth,2,0,1.9,1,1.1,0,0,5005,0,2,2,0,4,5005,386
1447,colorstoggle,60600,2,1,12,102.589,fieldSmooth,1,0.098716,0,0,1.1,0,0,3991,0,2,2,0,1,3991,384
1447,colorstoggle,60601,2,2,13,102.589,fieldSmooth,1,0.098716,0,0,1.1,0,11031,0,0,1,1,0,4,11031,382
1447,colorstoggle,60602,2,4,14,102.589,fieldSmooth,2,0,1.9,1,1.1,0,0,10518,0,2,2,0,6,10518,382
1447,colorstoggle,60603,2,3,15,102.589,fieldSmooth,1,0.098716,0,0,1.1,0,0,11383,0,2,2,0,3,11383,387
1447,colorstoggle,60604,2,4,16,102.589,fieldSmooth,1,0.098716,0,0,1.1,0,6673,0,0,1,1,0,4,6673,386
1447,colorstoggle,60605,3,1,17,102.589,fieldSmooth,1,0.098716,0,0,1.1,1,0,9569,0,2,2,1,4,9569,376
1447,colorstoggle,60606,3,2,18,102.589,fieldSmooth,1,0.098716,0,0,1.1,0,7052,0,0,1,1,0,6,7052,392
1447,colorstoggle,60607,3,1,19,102.589,fieldSmooth,2,0,1.9,1,1.1,0,3597,0,0,1,1,0,5,3597,413
1447,colorstoggle,60608,3,3,20,102.589,fieldSmooth,1,0.098716,0,0,1.1,1,4946,0,0,1,1,1,4,4946,387
1447,colorstoggle,60609,3,2,21,102.589,fieldSmooth,2,0,1.9,1,1.1,1,0,6973,0,2,2,1,1,6973,384
1447,colorstoggle,60610,3,4,22,102.589,fieldSmooth,1,0.098716,0,0,1.1,0,3217,0,0,1,1,0,5,3217,385
1447,colorstoggle,60611,3,3,23,102.589,fieldSmooth,2,0,1.9,1,1.1,0,7339,0,0,1,1,0,5,7339,425
1447,colorstoggle,60612,3,4,24,102.589,fieldSmooth,2,0,1.9,1,1.1,0,8927,0,0,1,1,0,2,8927,387
